pc_timestamp,dt,ax,ay,az,gx,gy,gz,true_vertical_accel,v_z,d_z
1778892972.070453,0.01,0.002685546875,-0.000732421875,1.0146484375,0.54931640625,-0.48828125,-0.54931640625,-0.0002870559741090517,0.0,-7.176399352726293e-09
1778892972.070453,0.01,0.0023193359375,-0.0020751953125,1.0147705078125,0.54931640625,-0.48828125,-0.54931640625,0.0009116098876145173,0.0,8.43744848491035e-09
1778892972.070453,0.01,0.0015869140625,-0.0018310546875,1.0145263671875,0.54931640625,-0.48828125,-0.54931640625,-0.0014518757677208782,0.0,-5.0691985177486715e-09
1778892972.070453,0.01,0.00146484375,-0.0020751953125,1.0150146484375,0.48828125,-0.54931640625,-0.48828125,0.003266407763227619,0.0,4.029410136991985e-08
1778892972.070453,0.01,0.001220703125,-0.00244140625,1.0147705078125,0.48828125,-0.48828125,-0.48828125,0.0009166451039703816,0.0,1.4487042304986986e-07
1778892972.070453,0.01,0.000732421875,-0.00146484375,1.0140380859375,0.48828125,-0.48828125,-0.48828125,-0.006186074600115887,0.0,1.3134685646232207e-08
1778892972.070453,0.01,0.0008544921875,-0.0003662109375,1.0140380859375,0.48828125,-0.48828125,-0.54931640625,-0.006214186461793503,0.0,-2.9687184090150255e-07
1778892972.070453,0.01,0.0013427734375,-0.00048828125,1.0146484375,0.48828125,-0.48828125,-0.48828125,-0.0003110323283106453,0.0,-4.600023106541062e-07
1778892972.070453,0.01,0.0013427734375,-0.0008544921875,1.0159912109375,0.48828125,-0.48828125,-0.48828125,0.01267492136927828,0.0,-1.5090508462991535e-07
1778892972.070453,0.01,0.00048828125,-0.001220703125,1.016357421875,0.48828125,-0.48828125,-0.48828125,0.016214685919241134,0.0,5.7133509758307e-07
1778892972.070453,0.01,0.000732421875,-0.0010986328125,1.0155029296875,0.48828125,-0.48828125,-0.54931640625,0.00795235585404086,0.0,1.1755111419151199e-06
1778892972.070453,0.01,0.0018310546875,-0.0006103515625,1.01513671875,0.48828125,-0.48828125,-0.48828125,0.004408990330567519,0.0,1.4845447965303292e-06
1778892972.070453,0.01,0.0020751953125,-0.00048828125,1.0147705078125,0.48828125,-0.48828125,-0.48828125,0.000866937366957643,0.0,1.6164429889684583e-06
1778892972.070453,0.01,0.0018310546875,-0.000732421875,1.0145263671875,0.48828125,-0.48828125,-0.48828125,-0.001490951119748729,0.0,1.6008426451486812e-06
1778892972.070453,0.01,0.0023193359375,-0.001708984375,1.0142822265625,0.48828125,-0.54931640625,-0.48828125,-0.003816000824278021,0.0,1.4681688465480124e-06
1778892972.070453,0.01,0.0023193359375,-0.0020751953125,1.0146484375,0.48828125,-0.48828125,-0.54931640625,-0.00026430672051347415,0.0,1.366161157928225e-06
1778892972.070453,0.01,0.00146484375,-0.0008544921875,1.015380859375,0.48828125,-0.48828125,-0.48828125,0.006756567117179202,0.0,1.5284676678448683e-06
1778892972.070453,0.01,0.001708984375,0.0,1.0145263671875,0.48828125,-0.54931640625,-0.48828125,-0.0015351960294776035,0.0,1.6590019450374082e-06
1778892972.070453,0.01,0.00244140625,-0.000244140625,1.0146484375,0.48828125,-0.48828125,-0.48828125,-0.00034068686755794886,0.0,1.6121048726115193e-06
1778892972.070453,0.01,0.0018310546875,-0.0003662109375,1.015380859375,0.48828125,-0.54931640625,-0.48828125,0.006727750218656681,0.0,1.7717814563889876e-06
1778892972.4183967,0.01,0.001220703125,-0.0006103515625,1.01513671875,0.48828125,-0.54931640625,-0.48828125,0.00436644442849321,0.0,2.0491363225677347e-06
1778892972.4183967,0.01,0.0018310546875,-0.0013427734375,1.0150146484375,0.48828125,-0.48828125,-0.48828125,0.003217573050660505,0.0,2.2387367595465775e-06
1778892972.4183967,0.01,0.0018310546875,-0.001220703125,1.0152587890625,0.48828125,-0.48828125,-0.54931640625,0.005570335889103717,0.0,2.458434483040683e-06
1778892972.4183967,0.01,0.0010986328125,-0.0006103515625,1.01513671875,0.48828125,-0.48828125,-0.54931640625,0.004355556839168884,0.0,2.706581801247498e-06
1778892972.4183967,0.01,0.001220703125,-0.0003662109375,1.0146484375,0.48828125,-0.48828125,-0.48828125,-0.00037763493740960996,0.0,2.8060298487914796e-06
1778892972.4183967,0.01,0.0013427734375,-0.0006103515625,1.0146484375,0.48828125,-0.48828125,-0.48828125,-0.0003696596882907244,0.0,2.7873474831489715e-06
1778892972.4183967,0.01,0.001220703125,-0.0006103515625,1.014404296875,0.48828125,-0.48828125,-0.48828125,-0.002735423891778055,0.0,2.709720393647252e-06
1778892972.4183967,0.01,0.001708984375,-0.001220703125,1.014404296875,0.42724609375,-0.48828125,-0.48828125,-0.002682906854021283,0.0,2.5742621250022686e-06
1778892972.4183967,0.01,0.0015869140625,-0.00146484375,1.0150146484375,0.48828125,-0.48828125,-0.48828125,0.0032211672205519903,0.0,2.5877186341655363e-06
1778892972.4183967,0.01,0.001708984375,-0.000732421875,1.015380859375,0.48828125,-0.48828125,-0.48828125,0.006725973454967615,0.0,2.8363971510535266e-06
1778892972.4183967,0.01,0.001953125,-0.000732421875,1.0150146484375,0.48828125,-0.48828125,-0.54931640625,0.0031865552090071247,0.0,3.084210367652895e-06
1778892972.4183967,0.01,0.0020751953125,-0.0006103515625,1.0146484375,0.48828125,-0.48828125,-0.54931640625,-0.00036076274077245785,0.0,3.154855179358762e-06
1778892972.4183967,0.01,0.0020751953125,-0.0008544921875,1.01513671875,0.48828125,-0.48828125,-0.48828125,0.0043649143192734385,0.0,3.2549589688212865e-06
1778892972.4183967,0.01,0.001953125,-0.00146484375,1.015380859375,0.48828125,-0.48828125,-0.48828125,0.006746324982321639,0.0,3.5327399513611637e-06
1778892972.4183967,0.01,0.0015869140625,-0.0010986328125,1.015625,0.48828125,-0.48828125,-0.54931640625,0.009072890715408732,0.0,3.928220343804423e-06
1778892972.4183967,0.01,0.0008544921875,-0.0009765625,1.01513671875,0.42724609375,-0.48828125,-0.54931640625,0.004345460379710175,0.0,4.263679121182395e-06
1778892972.4183967,0.01,0.001220703125,-0.001953125,1.01416015625,0.42724609375,-0.48828125,-0.54931640625,-0.005028581532259935,0.0,4.246601092368651e-06
1778892972.4183967,0.01,0.0018310546875,-0.0020751953125,1.0142822265625,0.48828125,-0.48828125,-0.48828125,-0.00383081211352021,0.0,4.025116251224147e-06
1778892972.419393,0.01,0.001953125,-0.0018310546875,1.0146484375,0.48828125,-0.48828125,-0.48828125,-0.00030299556389046245,0.0,3.92177105928888e-06
1778892972.419393,0.01,0.0010986328125,-0.0015869140625,1.014892578125,0.48828125,-0.48828125,-0.48828125,0.0020118985213262164,0.0,3.964493633224774e-06
1778892972.8204365,0.01,0.0006103515625,-0.0015869140625,1.0150146484375,0.48828125,-0.48828125,-0.48828125,0.003167252856995262,0.0,4.0939724176828105e-06
1778892972.8204365,0.01,0.0010986328125,-0.0013427734375,1.01513671875,0.48828125,-0.48828125,-0.54931640625,0.00434505512906469,0.0,4.2817801173343095e-06
1778892972.8204365,0.01,0.00146484375,-0.0010986328125,1.015380859375,0.48828125,-0.48828125,-0.54931640625,0.006698568502885749,0.0,4.557870708133071e-06
1778892972.8204365,0.01,0.001953125,-0.0010986328125,1.015380859375,0.48828125,-0.48828125,-0.54931640625,0.006709467659485213,0.0,4.893071612192345e-06
1778892972.8204365,0.01,0.0020751953125,-0.0009765625,1.0145263671875,0.48828125,-0.54931640625,-0.54931640625,-0.001546384634687925,0.0,5.022148687812277e-06
1778892972.8204365,0.01,0.001220703125,-0.0010986328125,1.013916015625,0.48828125,-0.48828125,-0.54931640625,-0.007477968109599331,0.0,4.796539869205096e-06
1778892972.8204365,0.01,0.00048828125,-0.00146484375,1.0146484375,0.48828125,-0.48828125,-0.54931640625,-0.0004176641664450642,0.0,4.599149062303986e-06
1778892972.8204365,0.01,0.00048828125,-0.001220703125,1.0152587890625,0.48828125,-0.48828125,-0.48828125,0.005458022771765769,0.0,4.725158027437003e-06
1778892972.8204365,0.01,0.0006103515625,-0.0010986328125,1.015380859375,0.42724609375,-0.48828125,-0.48828125,0.00665050057281924,0.0,5.027871111051629e-06
1778892972.8204365,0.01,0.0009765625,-0.001708984375,1.0152587890625,0.48828125,-0.48828125,-0.48828125,0.005506139942964339,0.0,5.331787123946218e-06
1778892972.8204365,0.01,0.001953125,-0.0013427734375,1.014892578125,0.48828125,-0.48828125,-0.48828125,0.0019825479148831704,0.0,5.519004320392406e-06
1778892972.8204365,0.01,0.001953125,-0.0006103515625,1.0147705078125,0.48828125,-0.48828125,-0.48828125,0.0007562317688769582,0.0,5.587473812486409e-06
1778892972.8204365,0.01,0.001708984375,-0.0008544921875,1.0146484375,0.42724609375,-0.48828125,-0.48828125,-0.0004068491014024289,0.0,5.596208379173272e-06
1778892972.8204365,0.01,0.0020751953125,-0.001220703125,1.014892578125,0.48828125,-0.48828125,-0.48828125,0.001978395937063837,0.0,5.635497050064808e-06
1778892972.8204365,0.01,0.0023193359375,-0.001220703125,1.0147705078125,0.48828125,-0.54931640625,-0.54931640625,0.0008180383729907703,0.0,5.7054079078161735e-06
1778892972.8204365,0.01,0.002197265625,-0.0008544921875,1.0145263671875,0.48828125,-0.48828125,-0.48828125,-0.0015737986004662474,0.0,5.686513902129286e-06
1778892972.8204365,0.01,0.002197265625,-0.0006103515625,1.0150146484375,0.48828125,-0.48828125,-0.48828125,0.0031234330451557213,0.0,5.725254763246523e-06
1778892972.8204365,0.01,0.0020751953125,0.0,1.0157470703125,0.48828125,-0.48828125,-0.48828125,0.010154026124693516,0.0,6.057191242492754e-06
1778892972.8204365,0.01,0.001708984375,0.0,1.015380859375,0.42724609375,-0.48828125,-0.48828125,0.006615816558996457,0.0,6.476437309585003e-06
1778892972.8204365,0.01,0.0013427734375,-0.0010986328125,1.014892578125,0.48828125,-0.48828125,-0.48828125,0.0019191605979607118,0.0,6.689811738508933e-06
1778892972.821436,0.01,0.0018310546875,-0.0010986328125,1.01513671875,0.48828125,-0.48828125,-0.48828125,0.004294076980510653,0.0,6.845142677970717e-06
1778892972.821436,0.01,0.00244140625,-0.0008544921875,1.01513671875,0.48828125,-0.48828125,-0.48828125,0.004305116012069732,0.0,7.060122502785227e-06
1778892972.821436,0.01,0.001953125,-0.0018310546875,1.0145263671875,0.48828125,-0.48828125,-0.48828125,-0.0015817770864217096,0.0,7.128205975926427e-06
1778892972.821436,0.01,0.0018310546875,-0.0013427734375,1.0147705078125,0.48828125,-0.48828125,-0.48828125,0.0007339938701971249,0.0,7.1070113955208124e-06
1778892972.821436,0.01,0.002197265625,0.0,1.0155029296875,0.48828125,-0.54931640625,-0.48828125,0.007773489015946211,0.0,7.319698467674396e-06
1778892972.821436,0.01,0.0013427734375,-0.0001220703125,1.0152587890625,0.48828125,-0.48828125,-0.48828125,0.005360309696399668,0.0,7.648043435483043e-06
1778892972.821436,0.01,0.001708984375,-0.0003662109375,1.0140380859375,0.48828125,-0.48828125,-0.48828125,-0.006415772642288431,0.0,7.621656861835824e-06
1778892972.821436,0.01,0.001953125,-0.0008544921875,1.01416015625,0.48828125,-0.48828125,-0.48828125,-0.005206668048421292,0.0,7.33109584456808e-06
1778892972.821436,0.01,0.000732421875,-0.0015869140625,1.015380859375,0.48828125,-0.48828125,-0.48828125,0.006546044440668197,0.0,7.3645802543742525e-06
1778892972.821436,0.01,0.0010986328125,-0.0010986328125,1.0152587890625,0.48828125,-0.48828125,-0.54931640625,0.005346070093912303,0.0,7.661883117738764e-06
1778892973.8847446,0.01,0.001708984375,-0.001220703125,1.014892578125,0.48828125,-0.48828125,-0.48828125,0.001839053081990727,0.0,7.84151119713634e-06
1778892973.8847446,0.01,0.0020751953125,-0.0018310546875,1.014892578125,0.48828125,-0.48828125,-0.48828125,0.0018870833441990698,0.0,7.934664607791085e-06
1778892973.8847446,0.01,0.0023193359375,-0.0013427734375,1.014892578125,0.48828125,-0.48828125,-0.54931640625,0.00185992887044506,0.0,8.028339913157188e-06
1778892973.8847446,0.01,0.002197265625,-0.0009765625,1.01416015625,0.48828125,-0.48828125,-0.48828125,-0.005263793866003397,0.0,7.943243288268229e-06
1778892973.8847446,0.01,0.0015869140625,-0.0008544921875,1.014404296875,0.48828125,-0.48828125,-0.48828125,-0.0029699036581227745,0.0,7.737400850165075e-06
1778892973.8847446,0.01,0.001220703125,-0.00048828125,1.014892578125,0.48828125,-0.54931640625,-0.48828125,0.0017181718249617006,0.0,7.706107554336048e-06
1778892973.8847446,0.01,0.001708984375,0.0,1.014404296875,0.48828125,-0.48828125,-0.48828125,-0.0030167562707532625,0.0,7.673642943191258e-06
1778892973.8847446,0.01,0.0013427734375,0.0001220703125,1.014404296875,0.48828125,-0.48828125,-0.48828125,-0.0030670602949793846,0.0,7.521547529047942e-06
1778892973.8847446,0.01,0.0015869140625,0.0001220703125,1.0142822265625,0.48828125,-0.48828125,-0.48828125,-0.004247031872546714,0.0,7.3386952248597894e-06
1778892973.8847446,0.01,0.0015869140625,-0.000244140625,1.0145263671875,0.48828125,-0.48828125,-0.48828125,-0.0018793547234281505,0.0,7.185535559960418e-06
1778892973.8847446,0.01,0.00146484375,-0.0008544921875,1.0146484375,0.48828125,-0.54931640625,-0.48828125,-0.0006469711090755226,0.0,7.122377414147826e-06
1778892973.8847446,0.01,0.001953125,-0.0010986328125,1.0142822265625,0.48828125,-0.48828125,-0.48828125,-0.00415075990314584,0.0,7.002434138842292e-06
1778892973.8847446,0.01,0.0018310546875,-0.0013427734375,1.0145263671875,0.48828125,-0.48828125,-0.54931640625,-0.0017978814432542123,0.0,6.853718105182291e-06
1778892973.8847446,0.01,0.0015869140625,-0.0018310546875,1.0145263671875,0.48828125,-0.48828125,-0.48828125,-0.0017952821364612959,0.0,6.763889015689403e-06
1778892973.8847446,0.01,0.0018310546875,-0.0013427734375,1.0145263671875,0.48828125,-0.48828125,-0.48828125,-0.0018306300063137826,0.0,6.673241212120026e-06
1778892973.8847446,0.01,0.00146484375,-0.00146484375,1.0147705078125,0.48828125,-0.48828125,-0.48828125,0.0004933612266686538,0.0,6.639809492628898e-06
1778892973.8847446,0.01,0.0006103515625,-0.0015869140625,1.0150146484375,0.48828125,-0.48828125,-0.48828125,0.002778114979513191,0.0,6.721596397783444e-06
1778892973.8847446,0.01,0.0010986328125,-0.00146484375,1.015380859375,0.48828125,-0.48828125,-0.48828125,0.00632687444191582,0.0,6.9492211333191694e-06
1778892973.8847446,0.01,0.002197265625,-0.001708984375,1.014404296875,0.48828125,-0.48828125,-0.48828125,-0.003021367049905521,0.0,7.031858818119427e-06
1778892973.8847446,0.01,0.001953125,-0.0020751953125,1.013916015625,0.48828125,-0.48828125,-0.48828125,-0.007747925284116164,0.0,6.7626265097688855e-06
1778892973.8847446,0.01,0.0009765625,-0.0023193359375,1.0145263671875,0.42724609375,-0.48828125,-0.48828125,-0.0018935387131122638,0.0,6.521589909838175e-06
1778892973.8847446,0.01,0.001220703125,-0.001708984375,1.0147705078125,0.48828125,-0.48828125,-0.54931640625,0.00042035065008860784,0.0,6.484760208262583e-06
1778892973.8847446,0.01,0.001953125,-0.0009765625,1.0152587890625,0.48828125,-0.48828125,-0.48828125,0.005125575268627003,0.0,6.623408356230474e-06
1778892973.8847446,0.01,0.002197265625,-0.0006103515625,1.015380859375,0.42724609375,-0.48828125,-0.48828125,0.006322167015238023,0.0,6.909601913327099e-06
1778892973.8847446,0.01,0.0018310546875,-0.00048828125,1.0147705078125,0.48828125,-0.48828125,-0.48828125,0.00036209311534385336,0.0,7.076708416591646e-06
1778892973.8847446,0.01,0.0015869140625,-0.00048828125,1.014404296875,0.48828125,-0.54931640625,-0.48828125,-0.0031740691354791295,0.0,7.006409016088264e-06
1778892973.8847446,0.01,0.001220703125,-0.0008544921875,1.0142822265625,0.42724609375,-0.48828125,-0.54931640625,-0.004336578098561361,0.0,6.818642835237252e-06
1778892973.8847446,0.01,0.0015869140625,-0.0010986328125,1.0142822265625,0.48828125,-0.48828125,-0.48828125,-0.004306245044585211,0.0,6.602572256658588e-06
1778892973.8847446,0.01,0.002685546875,-0.001220703125,1.01416015625,0.48828125,-0.48828125,-0.48828125,-0.0053968700507880385,0.0,6.359994379274257e-06
1778892973.8847446,0.01,0.0020751953125,-0.0015869140625,1.014892578125,0.48828125,-0.48828125,-0.48828125,0.0016342658894359374,0.0,6.265929275240454e-06
1778892974.0587788,0.01,0.00146484375,-0.0013427734375,1.0146484375,0.48828125,-0.48828125,-0.48828125,-0.0008200614144495688,0.0,6.286284387115113e-06
1778892974.0587788,0.01,0.001953125,-0.0013427734375,1.0145263671875,0.48828125,-0.48828125,-0.48828125,-0.001973850976137115,0.0,6.216436577350446e-06
1778892974.0587788,0.01,0.001708984375,-0.00146484375,1.01513671875,0.48828125,-0.48828125,-0.48828125,0.003890120675633213,0.0,6.264343319837848e-06
1778892974.0587788,0.01,0.0010986328125,-0.0009765625,1.01513671875,0.48828125,-0.48828125,-0.48828125,0.0037702432076702763,0.0,6.455852416920436e-06
1778892974.0587788,0.01,0.0013427734375,-0.0009765625,1.0157470703125,0.48828125,-0.48828125,-0.48828125,0.009670234506634401,0.0,6.791864359778052e-06
1778892974.0587788,0.01,0.001708984375,-0.0003662109375,1.0155029296875,0.48828125,-0.54931640625,-0.48828125,0.007326651878631907,0.0,7.21678651940971e-06
1778892974.0587788,0.01,0.0010986328125,-0.000244140625,1.01513671875,0.42724609375,-0.48828125,-0.48828125,0.0037436294185742014,0.0,7.493543551839862e-06
1778892974.0587788,0.01,0.0008544921875,-0.00146484375,1.0145263671875,0.48828125,-0.54931640625,-0.48828125,-0.0020526765552766335,0.0,7.535817373422302e-06
1778892974.0587788,0.01,0.0010986328125,-0.0018310546875,1.013916015625,0.48828125,-0.48828125,-0.48828125,-0.007920698024417305,0.0,7.286483008929954e-06
1778892974.0587788,0.01,0.0008544921875,-0.0015869140625,1.014892578125,0.48828125,-0.48828125,-0.48828125,0.001452553123002076,0.0,7.124779386394573e-06
1778892974.0597785,0.01,0.0009765625,-0.0008544921875,1.0155029296875,0.48828125,-0.48828125,-0.54931640625,0.007281214184969187,0.0,7.343123569093854e-06
1778892974.0597785,0.01,0.001220703125,-0.000244140625,1.0152587890625,0.48828125,-0.54931640625,-0.48828125,0.004925199224807386,0.0,7.648283904338268e-06
1778892974.0597785,0.01,0.0018310546875,-0.0003662109375,1.0150146484375,0.48828125,-0.48828125,-0.48828125,0.002611056503356579,0.0,7.836690297542368e-06
1778892974.0597785,0.01,0.0018310546875,-0.000732421875,1.0145263671875,0.48828125,-0.48828125,-0.48828125,-0.002098983837454327,0.0,7.849492114189924e-06
1778892974.0597785,0.01,0.0013427734375,-0.001220703125,1.013916015625,0.42724609375,-0.48828125,-0.48828125,-0.007981820573501608,0.0,7.597472003916026e-06
1778892974.0597785,0.01,0.0015869140625,-0.0010986328125,1.0140380859375,0.48828125,-0.48828125,-0.54931640625,-0.006809783550082216,0.0,7.227681900826431e-06
1778892974.0597785,0.01,0.001708984375,-0.0013427734375,1.0150146484375,0.48828125,-0.54931640625,-0.54931640625,0.002688572053132887,0.0,7.1246516134026975e-06
1778892974.0597785,0.01,0.0015869140625,-0.0018310546875,1.01513671875,0.48828125,-0.54931640625,-0.48828125,0.003924585304343253,0.0,7.289980547339601e-06
1778892974.0597785,0.01,0.001953125,-0.0015869140625,1.01513671875,0.48828125,-0.48828125,-0.48828125,0.00391767817766997,0.0,7.486037134389932e-06
1778892974.0597785,0.01,0.001953125,-0.0015869140625,1.015625,0.48828125,-0.48828125,-0.48828125,0.008615993983422499,0.0,7.799378938417243e-06
1778892974.0597785,0.01,0.00146484375,-0.00146484375,1.0155029296875,0.48828125,-0.48828125,-0.48828125,0.007358188368172591,0.0,8.19873349720712e-06
1778892974.0597785,0.01,0.001953125,-0.001708984375,1.014404296875,0.48828125,-0.48828125,-0.48828125,-0.003212094537941468,0.0,8.302385842962899e-06
1778892974.0597785,0.01,0.001953125,-0.002197265625,1.01416015625,0.48828125,-0.48828125,-0.48828125,-0.005549664467821458,0.0,8.083341867818826e-06
1778892974.0597785,0.01,0.0018310546875,-0.0018310546875,1.014892578125,0.48828125,-0.48828125,-0.48828125,0.001462019066446274,0.0,7.981150732784446e-06
1778892974.0597785,0.01,0.001953125,-0.0006103515625,1.0146484375,0.48828125,-0.48828125,-0.48828125,-0.0010177640377264652,0.0,7.99225710850244e-06
1778892974.0597785,0.01,0.0013427734375,0.0001220703125,1.0150146484375,0.48828125,-0.48828125,-0.48828125,0.0023669397295869032,0.0,8.025986500798952e-06
1778892974.0597785,0.01,0.00146484375,-0.000244140625,1.015625,0.48828125,-0.48828125,-0.48828125,0.008286133142206609,0.0,8.29231332259379e-06
1778892974.0597785,0.01,0.0018310546875,-0.0008544921875,1.0150146484375,0.54931640625,-0.48828125,-0.48828125,0.0024035149897940755,0.0,8.559554525893806e-06
1778892974.0597785,0.01,0.00146484375,-0.00048828125,1.0152587890625,0.48828125,-0.48828125,-0.54931640625,0.004660562183293138,0.0,8.736156455220987e-06
1778892974.0597785,0.01,0.00146484375,-0.00048828125,1.0157470703125,0.48828125,-0.54931640625,-0.48828125,0.009409864244720012,0.0,9.087917115921315e-06
1778892974.0597785,0.01,0.001708984375,-0.00048828125,1.0152587890625,0.48828125,-0.54931640625,-0.54931640625,0.004744250817790174,0.0,9.44176999248407e-06
1778892974.0597785,0.01,0.00146484375,0.0,1.014892578125,0.48828125,-0.48828125,-0.48828125,0.0011042681119679543,0.0,9.587982965728023e-06
1778892974.0597785,0.01,0.0013427734375,-0.00048828125,1.014892578125,0.48828125,-0.54931640625,-0.48828125,0.0011704379358157269,0.0,9.644850616922615e-06
1778892974.0597785,0.01,0.00048828125,-0.0003662109375,1.0152587890625,0.48828125,-0.54931640625,-0.48828125,0.004642738531833501,0.0,9.790180028613845e-06
1778892974.0597785,0.01,0.0009765625,-0.000732421875,1.015380859375,0.48828125,-0.48828125,-0.48828125,0.0058811653140438125,0.0,1.0053277624760778e-05
1778892974.0597785,0.01,0.0023193359375,-0.001220703125,1.0146484375,0.42724609375,-0.48828125,-0.54931640625,-0.0009825500643803053,0.0,1.0175743006002366e-05
1778892974.0597785,0.01,0.0018310546875,-0.0013427734375,1.0137939453125,0.42724609375,-0.48828125,-0.54931640625,-0.009243392840698306,0.0,9.9200944333754e-06
1778892974.0597785,0.01,0.001220703125,-0.0013427734375,1.0137939453125,0.48828125,-0.48828125,-0.54931640625,-0.009327034431288794,0.0,9.455833751575723e-06
1778892974.0597785,0.01,0.0013427734375,-0.0010986328125,1.0146484375,0.48828125,-0.48828125,-0.48828125,-0.001106197566873135,0.0,9.195002951621675e-06
1778892974.0597785,0.01,0.0008544921875,-0.0008544921875,1.0155029296875,0.48828125,-0.48828125,-0.48828125,0.007051715844788475,0.0,9.343640908569558e-06
1778892974.0597785,0.01,0.00048828125,-0.001220703125,1.0155029296875,0.48828125,-0.48828125,-0.54931640625,0.007024720765199888,0.0,9.695551823819267e-06
1778892974.0597785,0.01,0.0003662109375,-0.002197265625,1.0145263671875,0.48828125,-0.48828125,-0.48828125,-0.002351310986050237,0.0,9.812387068298009e-06
1778892974.0597785,0.01,-0.000732421875,-0.0018310546875,1.014404296875,0.48828125,-0.48828125,-0.48828125,-0.003713180235711988,0.0,9.660774787753953e-06
1778892974.0597785,0.01,-0.0008544921875,-0.0023193359375,1.0147705078125,0.42724609375,-0.48828125,-0.48828125,-0.00011503219890585115,0.0,9.565069476888507e-06
1778892974.0597785,0.01,-0.0001220703125,-0.00244140625,1.014892578125,0.48828125,-0.48828125,-0.48828125,0.001129060083725264,0.0,9.590420174008992e-06
1778892974.0597785,0.01,0.0008544921875,-0.0010986328125,1.0147705078125,0.48828125,-0.48828125,-0.48828125,-0.00010609773858583083,0.0,9.615994232637478e-06
1778892974.0597785,0.01,0.002197265625,0.00146484375,1.01416015625,0.48828125,-0.54931640625,-0.48828125,-0.006089222688686391,0.0,9.461111221955673e-06
1778892974.0597785,0.01,0.0020751953125,0.0025634765625,1.014404296875,0.48828125,-0.48828125,-0.48828125,-0.0038856489128757943,0.0,9.211739431916618e-06
1778892974.0597785,0.01,0.00146484375,0.0010986328125,1.0142822265625,0.48828125,-0.48828125,-0.54931640625,-0.005008190493764886,0.0,8.9893934467506e-06
1778892974.0597785,0.01,0.0009765625,-0.000732421875,1.0142822265625,0.48828125,-0.48828125,-0.48828125,-0.004897547802066526,0.0,8.741749989354815e-06
1778892974.0597785,0.01,0.0013427734375,-0.0030517578125,1.0157470703125,0.48828125,-0.48828125,-0.48828125,0.00952024669669882,0.0,8.857317461720623e-06
1778892974.0597785,0.01,0.0028076171875,-0.00439453125,1.0155029296875,0.48828125,-0.48828125,-0.48828125,0.0074494911117977125,0.0,9.281560906933037e-06
1778892974.0597785,0.01,0.003662109375,-0.00439453125,1.0142822265625,0.48828125,-0.48828125,-0.48828125,-0.004269544549817539,0.0,9.361059570982542e-06
1778892974.0597785,0.01,0.0042724609375,-0.0032958984375,1.014404296875,0.48828125,-0.48828125,-0.48828125,-0.003160999973122358,0.0,9.175295957909045e-06
1778892974.0597785,0.01,0.0030517578125,-0.0013427734375,1.0142822265625,0.48828125,-0.48828125,-0.48828125,-0.0047275921023697265,0.0,8.978081156021742e-06
1778892974.0597785,0.01,0.0015869140625,-0.000244140625,1.0140380859375,0.48828125,-0.48828125,-0.48828125,-0.0074154005023459035,0.0,8.67450634090385e-06
1778892974.0597785,0.01,0.00390625,0.00048828125,1.015380859375,0.48828125,-0.48828125,-0.48828125,0.00573140420778806,0.0,8.632406433539904e-06
1778892974.0597785,0.01,0.0087890625,-0.000244140625,1.01611328125,0.48828125,-0.48828125,-0.54931640625,0.013473425955018214,0.0,9.112527187610061e-06
1778892974.0597785,0.01,0.0111083984375,-0.0010986328125,1.0147705078125,0.48828125,-0.48828125,-0.54931640625,0.0008697144871252505,0.0,9.471105698663648e-06
1778892974.0597785,0.01,0.007080078125,-0.0013427734375,1.0142822265625,0.48828125,-0.48828125,-0.54931640625,-0.0043501840405077985,0.0,9.384093959829084e-06
1778892974.0597785,0.01,0.000244140625,-0.0008544921875,1.01513671875,0.54931640625,-0.48828125,-0.54931640625,0.0028730336108200305,0.0,9.34716519908689e-06
1778892974.0597785,0.01,-0.0054931640625,-0.0003662109375,1.01416015625,0.48828125,-0.48828125,-0.54931640625,-0.007410099640663859,0.0,9.233738548340795e-06
1778892974.060795,0.01,-0.0072021484375,-0.0015869140625,1.0142822265625,0.42724609375,-0.48828125,-0.48828125,-0.006279772457494559,0.0,8.891491745886835e-06
1778892974.060795,0.01,-0.0047607421875,-0.001708984375,1.0150146484375,0.48828125,-0.48828125,-0.48828125,0.0010940890187942642,0.0,8.761849659919328e-06
1778892974.060795,0.01,-0.0009765625,-0.0009765625,1.0135498046875,0.48828125,-0.48828125,-0.48828125,-0.012679830820063742,0.0,8.472206114887591e-06
1778892974.060795,0.01,0.0010986328125,-0.00146484375,1.0130615234375,0.48828125,-0.48828125,-0.54931640625,-0.01709019243730836,0.0,7.727955533453288e-06
1778892974.060795,0.01,0.0025634765625,-0.0015869140625,1.0142822265625,0.48828125,-0.48828125,-0.48828125,-0.005109900953145896,0.0,7.1729531986919315e-06
1778892974.060795,0.01,0.004638671875,-0.0015869140625,1.014892578125,0.48828125,-0.48828125,-0.54931640625,0.0010472028812529288,0.0,7.071385746894607e-06
1778892974.060795,0.01,0.005126953125,-0.0018310546875,1.0137939453125,0.48828125,-0.48828125,-0.48828125,-0.00949736462551698,0.0,6.860131703288006e-06
1778892974.060795,0.01,0.0037841796875,-0.0013427734375,1.013671875,0.48828125,-0.54931640625,-0.48828125,-0.010895732763305688,0.0,6.350304268567439e-06
1778892974.060795,0.01,0.0025634765625,0.0,1.0150146484375,0.48828125,-0.48828125,-0.48828125,0.0017053905880626274,0.0,6.120545714186362e-06
1778892974.060795,0.01,0.0009765625,0.0009765625,1.013916015625,0.48828125,-0.48828125,-0.48828125,-0.009295454103371625,0.0,5.930794126303637e-06
1778892974.060795,0.01,-0.0018310546875,0.0010986328125,1.012939453125,0.48828125,-0.48828125,-0.48828125,-0.019185264685738446,0.0,5.218776156575885e-06
1778892974.060795,0.01,-0.0037841796875,0.0008544921875,1.0146484375,0.42724609375,-0.48828125,-0.54931640625,-0.002877732499305452,0.0,4.667201226949787e-06
1778892974.060795,0.01,-0.005615234375,0.00048828125,1.0147705078125,0.42724609375,-0.54931640625,-0.48828125,-0.0017613843485921876,0.0,4.551223305752346e-06
1778892974.060795,0.01,-0.00537109375,-0.00048828125,1.013671875,0.42724609375,-0.54931640625,-0.48828125,-0.012080778982511475,0.0,4.205169222474755e-06
1778892974.060795,0.01,-0.0029296875,-0.0003662109375,1.013916015625,0.42724609375,-0.54931640625,-0.48828125,-0.009276846791571813,0.0,3.671228578122672e-06
1778892974.060795,0.01,-0.0003662109375,-0.000244140625,1.014892578125,0.42724609375,-0.54931640625,-0.48828125,0.0005959432759254923,0.0,3.4542059902315142e-06
1778892974.060795,0.01,0.0025634765625,-0.001220703125,1.0166015625,0.42724609375,-0.54931640625,-0.48828125,0.017679137243966636,0.0,3.9110830032288175e-06
1778892974.060795,0.01,0.00537109375,-0.0023193359375,1.017578125,0.42724609375,-0.48828125,-0.48828125,0.027599986051567882,0.0,5.043061085617181e-06
1778892974.060795,0.01,0.00927734375,-0.003662109375,1.0169677734375,0.48828125,-0.48828125,-0.48828125,0.0223037140835185,0.0,6.29065358899434e-06
1778892974.060795,0.01,0.010986328125,-0.0047607421875,1.0157470703125,0.48828125,-0.48828125,-0.48828125,0.010820855946157337,0.0,7.118767839736236e-06
1778892974.060795,0.01,0.009033203125,-0.0048828125,1.013427734375,0.48828125,-0.48828125,-0.54931640625,-0.011840676670180628,0.0,7.0932723216356535e-06
1778892974.060795,0.01,0.0052490234375,-0.00341796875,1.01318359375,0.48828125,-0.48828125,-0.48828125,-0.014855822776917549,0.0,6.425859835458199e-06
1778892974.060795,0.01,0.0003662109375,-0.001220703125,1.015625,0.54931640625,-0.42724609375,-0.48828125,0.007704204109337809,0.0,6.247069368768706e-06
1778892974.060795,0.01,-0.0032958984375,0.0009765625,1.015869140625,0.48828125,-0.48828125,-0.54931640625,0.009277156465483216,0.0,6.671603383139232e-06
1778892974.060795,0.01,-0.0047607421875,0.0025634765625,1.01513671875,0.48828125,-0.48828125,-0.54931640625,0.0017740325174973037,0.0,6.9478831077137445e-06
1778892974.060795,0.01,-0.00537109375,0.0029296875,1.01318359375,0.42724609375,-0.48828125,-0.54931640625,-0.017188950070082143,0.0,6.562510168899124e-06
1778892974.060795,0.01,-0.004638671875,0.002197265625,1.0118408203125,0.48828125,-0.48828125,-0.54931640625,-0.030027504534853477,0.0,5.382098803775734e-06
1778892974.060795,0.01,-0.0025634765625,0.001220703125,1.013916015625,0.48828125,-0.48828125,-0.54931640625,-0.009612457138652886,0.0,4.391099761938074e-06
1778892974.060795,0.01,0.0,0.00048828125,1.0152587890625,0.42724609375,-0.48828125,-0.48828125,0.0038472786376928525,0.0,4.246970299414073e-06
1778892974.060795,0.01,0.0037841796875,-0.0015869140625,1.01513671875,0.48828125,-0.54931640625,-0.48828125,0.003479693062496736,0.0,4.430144591918813e-06
1778892974.060795,0.01,0.00927734375,-0.0047607421875,1.01513671875,0.42724609375,-0.54931640625,-0.48828125,0.004650835411657894,0.0,4.633407803772679e-06
1778892974.060795,0.01,0.0118408203125,-0.0064697265625,1.0142822265625,0.42724609375,-0.54931640625,-0.48828125,-0.003050654426036914,0.0,4.673412328413203e-06
1778892974.060795,0.01,0.0096435546875,-0.005615234375,1.014404296875,0.48828125,-0.54931640625,-0.54931640625,-0.0022341751675298838,0.0,4.541291588574033e-06
1778892974.060795,0.01,0.00439453125,-0.00390625,1.0152587890625,0.48828125,-0.48828125,-0.54931640625,0.005155043065002474,0.0,4.614313286010848e-06
1778892974.060795,0.01,-0.001220703125,-0.0010986328125,1.01513671875,0.42724609375,-0.48828125,-0.54931640625,0.002981935198260288,0.0,4.817737742592417e-06
1778892974.060795,0.01,-0.0050048828125,0.0028076171875,1.015869140625,0.48828125,-0.48828125,-0.48828125,0.00914873703240282,0.0,5.121004548358994e-06
1778892974.060795,0.01,-0.0059814453125,0.005126953125,1.0146484375,0.48828125,-0.48828125,-0.54931640625,-0.003045837320515332,0.0,5.273577041156182e-06
1778892974.060795,0.01,-0.00439453125,0.0052490234375,1.0128173828125,0.42724609375,-0.48828125,-0.54931640625,-0.02049376410453263,0.0,4.685087005529983e-06
1778892974.060795,0.01,-0.0020751953125,0.0035400390625,1.0125732421875,0.48828125,-0.48828125,-0.54931640625,-0.0224194216329483,0.0,3.6122573620929596e-06
1778892974.060795,0.01,0.0010986328125,0.000732421875,1.0137939453125,0.48828125,-0.48828125,-0.54931640625,-0.009956860683018931,0.0,2.8028503041937787e-06
1778892974.060795,0.01,0.00390625,-0.0015869140625,1.015625,0.48828125,-0.48828125,-0.54931640625,0.008321401812217744,0.0,2.761963832423749e-06
1778892974.060795,0.01,0.005126953125,-0.0040283203125,1.0166015625,0.48828125,-0.48828125,-0.54931640625,0.01813923503368997,0.0,3.423479753571442e-06
1778892974.060795,0.01,0.0062255859375,-0.005859375,1.0157470703125,0.48828125,-0.54931640625,-0.48828125,0.010247297261321009,0.0,4.133143060946716e-06
1778892974.060795,0.01,0.006103515625,-0.0047607421875,1.0142822265625,0.42724609375,-0.48828125,-0.48828125,-0.004020098614951451,0.0,4.2888230271059555e-06
1778892974.060795,0.01,0.004150390625,-0.002685546875,1.0137939453125,0.48828125,-0.48828125,-0.48828125,-0.009228349002098568,0.0,3.957611836679705e-06
1778892974.060795,0.01,0.000244140625,-0.002685546875,1.016845703125,0.79345703125,-0.67138671875,-0.48828125,0.019667187017301302,0.0,4.2185827870597735e-06
1778892974.060795,0.01,-0.0029296875,-0.0006103515625,1.01953125,2.13623046875,-1.40380859375,-0.6103515625,0.042661246326520796,0.0,5.776793620655326e-06
1778892974.060795,0.01,-0.0015869140625,0.0045166015625,1.01416015625,2.0751953125,-1.28173828125,-0.54931640625,-0.017004772749405817,0.0,6.4182054600832e-06
1778892974.060795,0.01,-0.0013427734375,0.00439453125,1.01171875,0.9765625,-0.79345703125,-0.54931640625,-0.04317660918880506,0.0,4.9136709116279285e-06
1778892974.060795,0.01,-0.001953125,0.000732421875,1.014892578125,1.03759765625,-0.8544921875,-0.54931640625,-0.013893912583693435,0.0,3.486907867315466e-06
1778892974.060795,0.01,0.0013427734375,-0.0009765625,1.0152587890625,1.28173828125,-0.9765625,-0.54931640625,-0.015048278182975494,0.0,2.763353098148743e-06
1778892974.060795,0.01,0.0050048828125,-0.001708984375,1.01513671875,1.3427734375,-0.91552734375,-0.6103515625,-0.02283189366534799,0.0,1.8163488019406557e-06
1778892974.060795,0.01,0.0068359375,-0.0025634765625,1.0150146484375,1.3427734375,-0.91552734375,-0.6103515625,-0.03117459379526899,0.0,4.66186615425231e-07
1778892974.060795,0.01,0.0074462890625,-0.00341796875,1.01513671875,1.46484375,-0.91552734375,-0.6103515625,-0.038786266865439956,0.0,-1.2828349010924927e-06
1778892974.060795,0.01,0.0069580078125,-0.001953125,1.015380859375,1.89208984375,-0.79345703125,-0.67138671875,-0.05194398072354112,0.0,-3.55109109081702e-06
1778892974.060795,0.01,0.0040283203125,0.001953125,1.0137939453125,1.5869140625,-0.67138671875,-0.54931640625,-0.08307529169349337,-0.0006750963620851724,-6.926572901242882e-06
1778892974.060795,0.01,0.0003662109375,0.005126953125,1.012939453125,1.0986328125,-0.6103515625,-0.42724609375,-0.10156173702218219,-0.00159828150566355,-1.8293462239986497e-05
1778892974.060795,0.01,0.0032958984375,0.016845703125,0.9921875,-1.220703125,-0.1220703125,-0.30517578125,-0.2927625641773961,-0.0035699030116614415,-4.413438482661145e-05
1778892974.060795,0.01,0.0023193359375,0.009521484375,1.003173828125,-4.45556640625,1.15966796875,-0.30517578125,-0.13268802264332002,-0.0056971559457650225,-9.046967961374377e-05
1778892974.060795,0.01,-0.00439453125,-0.0096435546875,1.0343017578125,-2.25830078125,0.8544921875,-0.42724609375,0.1881082619501786,-0.005420054749230729,-0.00014605573308872254
1778892974.060795,0.01,-0.0020751953125,-0.006591796875,1.022705078125,0.06103515625,-0.30517578125,-0.48828125,0.07599975200244735,0.0,-0.00019365358023221417
1778892974.060795,0.01,0.0032958984375,-0.0025634765625,1.013427734375,0.244140625,-0.42724609375,-0.48828125,-0.013955940942594225,0.0,-0.00019210248495571785
1778892974.060795,0.01,0.0057373046875,-0.002685546875,1.0150146484375,0.3662109375,-0.42724609375,-0.48828125,0.0017161474717575231,0.0,-0.00019240847979248876
1778892974.060795,0.01,0.00634765625,-0.0018310546875,1.0157470703125,0.3662109375,-0.42724609375,-0.48828125,0.008858469175738293,0.0,-0.00019214411437630137
1778892974.0617967,0.01,0.0059814453125,-0.0008544921875,1.015869140625,0.3662109375,-0.48828125,-0.48828125,0.010032071484509686,0.0,-0.00019167185085979517
1778892974.0617967,0.01,0.0047607421875,-0.000244140625,1.013427734375,0.42724609375,-0.48828125,-0.48828125,-0.013651257828616536,0.0,-0.00019176233051839783
1778892974.0617967,0.01,0.001953125,0.0010986328125,1.0126953125,0.42724609375,-0.48828125,-0.48828125,-0.021043914188139112,0.0,-0.00019262970981881672
1778892974.0617967,0.01,-0.0003662109375,-0.000732421875,1.0159912109375,0.732421875,-0.48828125,-0.54931640625,0.010510016290249169,0.0,-0.00019289305726626397
1778892974.0617967,0.01,0.000244140625,-0.01904296875,1.0157470703125,1.0986328125,-0.54931640625,-0.732421875,0.011572573596287938,0.0,-0.00019234099251910054
1778892974.0617967,0.01,-0.0009765625,-0.052001953125,1.0164794921875,0.67138671875,-0.18310546875,-2.197265625,0.02735672606308981,0.0,-0.0001913677600276161
1778892974.0617967,0.01,-0.0052490234375,-0.0185546875,1.017822265625,0.18310546875,0.0,-0.8544921875,0.0300241863686459,0.0,-0.00018993323721682272
1778892974.0617967,0.01,-0.002197265625,0.0615234375,1.0096435546875,-0.54931640625,-0.48828125,-1.953125,-0.060699743175735676,0.0,-0.00019070012613699996
1778892974.0617967,0.01,-0.0185546875,0.0655517578125,1.0155029296875,-1.0986328125,-0.244140625,-11.962890625,0.0025326430250718346,0.0,-0.00019215430364076655
1778892974.0617967,0.01,-0.0350341796875,0.0211181640625,1.030029296875,-0.91552734375,0.0,-29.60205078125,0.13682707211614087,0.0006967985757060635,-0.00018867031076223622
1778892974.0617967,0.01,-0.0015869140625,-0.0155029296875,1.0430908203125,-3.2958984375,2.86865234375,-38.9404296875,0.23863743122219994,0.002574121092397768,-0.00017231571242171706
1778892974.0617967,0.01,0.02490234375,-0.0062255859375,1.0826416015625,-10.7421875,13.3056640625,-38.6962890625,0.4073689719323852,0.005804153108170694,-0.00013042434141887475
1778892974.0617967,0.01,0.0008544921875,0.01318359375,1.13037109375,-15.68603515625,22.27783203125,-40.10009765625,-0.1903163553237075,0.0068894161912140825,-6.695649492195088e-05
1778892974.0617967,0.01,0.012939453125,0.0147705078125,1.1868896484375,-18.24951171875,11.41357421875,-50.10986328125,-0.9772455599131202,0.0010516066150299437,-2.7251380890730747e-05
1778892974.2347832,0.01,0.01171875,0.0953369140625,1.2569580078125,-25.634765625,-14.0380859375,-65.4296875,-3.2174290496375413,-0.019921766432723365,-0.00012160217997919786
1778892974.2347832,0.01,-0.01904296875,0.144775390625,1.2598876953125,-26.06201171875,-28.50341796875,-54.26025390625,-7.835674306425104,-0.0751872832130366,-0.0005971474282079977
1778892974.2347832,0.01,0.041259765625,-0.0048828125,1.2271728515625,-12.20703125,-18.5546875,-27.9541015625,-9.115273475568822,-0.15994202212300623,-0.0017727939548882118
1778892974.2347832,0.01,0.100830078125,-0.1832275390625,1.275146484375,8.97216796875,1.15966796875,-17.51708984375,-7.401982115025847,-0.24252830007597959,-0.003785145565883141
1778892974.2347832,0.01,0.0665283203125,-0.2247314453125,1.3953857421875,26.0009765625,5.92041015625,-22.27783203125,-7.402194533037859,-0.3165491833162981,-0.00658053298284453
1778892974.2347832,0.01,0.009765625,-0.1834716796875,1.4801025390625,39.12353515625,-9.033203125,-27.28271484375,-11.59024297925086,-0.4115113708777417,-0.010220835753814729
1778892974.2347832,0.01,-0.0091552734375,-0.1134033203125,1.46533203125,44.43359375,-31.6162109375,-28.25927734375,-18.27454383764386,-0.5608353049622153,-0.015082569133014513
1778892974.2347832,0.01,-0.01123046875,-0.0494384765625,1.39404296875,41.56494140625,-51.6357421875,-27.099609375,-22.531069047025333,-0.7648633693855613,-0.021711062504753395
1778892974.2347832,0.01,-0.0167236328125,-0.0206298828125,1.2965087890625,35.5224609375,-65.4296875,-25.2685546875,-20.564640649737704,-0.9803419178693765,-0.030437088941028083
1778892974.2347832,0.01,-0.0162353515625,-0.015869140625,1.1810302734375,31.79931640625,-70.37353515625,-24.658203125,-13.326040655141407,-1.149795324393772,-0.041087775152343825
1778892974.2347832,0.01,-0.0059814453125,-0.0054931640625,1.0860595703125,29.296875,-67.138671875,-26.79443359375,-6.13345850547771,-1.2470928201968676,-0.05307221587529702
1778892974.2347832,0.01,0.0032958984375,0.018310546875,1.0255126953125,27.03857421875,-59.63134765625,-29.84619140625,-2.218017271256967,-1.288850199080541,-0.06575193097168407
1778892974.2347832,0.01,0.0108642578125,0.0516357421875,0.975830078125,22.27783203125,-50.72021484375,-30.21240234375,-1.9040712605968197,-1.30946064173981,-0.07874348517578582
1778892974.2347832,0.01,0.0152587890625,0.0809326171875,0.9373779296875,11.962890625,-42.3583984375,-27.40478515625,-3.868217465331246,-1.3383220853694504,-0.09198239881133212
1778892974.2347832,0.01,0.018310546875,0.0897216796875,0.9425048828125,-4.33349609375,-37.59765625,-24.0478515625,-6.700336128720715,-1.3911648533397103,-0.10562983350487792
1778892974.2347832,0.01,0.0296630859375,0.0830078125,0.994384765625,-22.88818359375,-38.63525390625,-22.76611328125,-9.940820471742466,-1.4743706363420261,-0.1199575109532866
1778892974.2347832,0.01,0.0408935546875,0.0631103515625,1.0479736328125,-37.59765625,-43.76220703125,-21.8505859375,-12.928851568599164,-1.5887189965437343,-0.13527295911771542
1778892974.2347832,0.01,0.047607421875,0.0457763671875,1.0693359375,-44.25048828125,-50.84228515625,-22.216796875,-14.145333753795981,-1.72408992315571,-0.15183700371621264
1778892974.2347832,0.01,0.05615234375,0.052001953125,1.0533447265625,-42.724609375,-57.4951171875,-22.8271484375,-12.869168154359176,-1.859162432696486,-0.16975326549547362
1778892974.2347832,0.01,0.065185546875,0.073974609375,1.0045166015625,-36.43798828125,-61.767578125,-22.0947265625,-9.740332929932217,-1.972209938117943,-0.18891012734954576
1778892974.3985636,0.01,0.0809326171875,0.0914306640625,0.9366455078125,-29.35791015625,-62.255859375,-18.1884765625,-6.467083436766148,-2.053247019951435,-0.20903741213989266
1778892974.3985636,0.01,0.106689453125,0.0823974609375,0.8817138671875,-25.57373046875,-59.99755859375,-14.7705078125,-4.39663468919157,-2.1075656105812235,-0.22984147529255594
1778892974.3985636,0.01,0.1280517578125,0.0489501953125,0.856201171875,-23.92578125,-56.884765625,-15.2587890625,-3.7718042354198174,-2.1484078052042803,-0.2511213423714835
1778892974.3985636,0.01,0.1427001953125,0.018798828125,0.8575439453125,-21.8505859375,-52.6123046875,-16.29638671875,-4.20924916404837,-2.188313072201621,-0.27280494675851297
1778892974.3985636,0.01,0.1578369140625,0.0045166015625,0.877685546875,-20.8740234375,-48.52294921875,-16.05224609375,-5.2488832070605485,-2.2356037340571655,-0.2949245307898069
1778892974.3985636,0.01,0.1690673828125,-0.008544921875,0.8961181640625,-23.01025390625,-46.142578125,-14.70947265625,-6.700331953637124,-2.295349809860654,-0.317579298509396
1778892974.3985636,0.01,0.176025390625,-0.03125,0.9031982421875,-29.1748046875,-45.8984375,-13.73291015625,-8.078405882978771,-2.3692434990437334,-0.3409022650539179
1778892974.3985636,0.01,0.1842041015625,-0.058837890625,0.8924560546875,-36.56005859375,-46.93603515625,-14.22119140625,-8.963189139719697,-2.4544514741572256,-0.3650207399199227
1778892974.3985636,0.01,0.193603515625,-0.0750732421875,0.8614501953125,-40.0390625,-47.7294921875,-15.07568359375,-9.504001391033867,-2.5467874268109933,-0.39002693442476377
1778892974.3985636,0.01,0.2083740234375,-0.0653076171875,0.8291015625,-41.3818359375,-46.2646484375,-17.4560546875,-9.627634858297434,-2.64244560805765,-0.415973099599107
1778892974.3985636,0.01,0.2327880859375,-0.0438232421875,0.805419921875,-42.78564453125,-41.68701171875,-19.10400390625,-8.8163389569807,-2.7346654771340404,-0.44285865502506544
1778892974.3985636,0.01,0.2606201171875,-0.0350341796875,0.79443359375,-43.9453125,-35.46142578125,-18.98193359375,-7.106336681191499,-2.8142788553249014,-0.47060337668736013
1778892974.3985636,0.01,0.2783203125,-0.037841796875,0.8057861328125,-41.19873046875,-29.47998046875,-17.4560546875,-5.218790188911658,-2.8759044896754173,-0.49905429341236174
1778892974.3985636,0.01,0.2841796875,-0.0450439453125,0.8287353515625,-34.48486328125,-24.59716796875,-15.9912109375,-3.906722782108904,-2.92153205453052,-0.5280414761333915
1778892974.3985636,0.01,0.285400390625,-0.05322265625,0.857421875,-27.2216796875,-21.3623046875,-16.54052734375,-3.296246482429434,-2.957546900853212,-0.5574368709103101
1778892974.3985636,0.01,0.2823486328125,-0.062255859375,0.883056640625,-19.6533203125,-19.34814453125,-18.00537109375,-3.286538569611279,-2.9904608261134156,-0.5871769095451432
1778892974.3985636,0.01,0.28173828125,-0.06591796875,0.88623046875,-11.65771484375,-17.7001953125,-18.00537109375,-3.715480361199126,-3.0254709207674675,-0.6172565682795477
1778892974.3985636,0.01,0.2811279296875,-0.06640625,0.87744140625,-6.16455078125,-16.54052734375,-16.78466796875,-4.361024367055536,-3.0658534444087406,-0.6477131901054287
1778892974.3985636,0.01,0.2757568359375,-0.0699462890625,0.869140625,-1.8310546875,-15.9912109375,-15.0146484375,-5.193584334067348,-3.113626487914355,-0.6786105897670442
1778892974.3985636,0.01,0.2728271484375,-0.0662841796875,0.8636474609375,0.91552734375,-15.68603515625,-13.3056640625,-6.100651608404465,-3.170097667626714,-0.7100292105447495
1778892974.5663772,0.01,0.274658203125,-0.061767578125,0.86572265625,0.91552734375,-14.34326171875,-11.5966796875,-6.867381442968963,-3.234937832883581,-0.7420543880473011
1778892974.5663772,0.01,0.279296875,-0.072021484375,0.8741455078125,0.0,-11.53564453125,-9.521484375,-7.346058149645551,-3.3060050308466535,-0.7747591023659522
1778892974.5663772,0.01,0.2801513671875,-0.0921630859375,0.8863525390625,-2.74658203125,-8.544921875,-8.1787109375,-7.4438728254978805,-3.3799546857223706,-0.8081889009487974
1778892974.5663772,0.01,0.2747802734375,-0.1075439453125,0.8934326171875,-7.2021484375,-5.92041015625,-6.89697265625,-7.099372749163257,-3.4526709135956763,-0.8423520289453876
1778892974.5663772,0.01,0.2725830078125,-0.1138916015625,0.8909912109375,-11.65771484375,-4.33349609375,-5.126953125,-6.331458333717995,-3.5198250690100825,-0.8772145088584165
1778892974.5663772,0.01,0.273193359375,-0.1129150390625,0.8858642578125,-14.7705078125,-3.60107421875,-3.5400390625,-5.364041184876229,-3.5783025666030537,-0.9127051470364821
1778892974.5663772,0.01,0.2728271484375,-0.10302734375,0.884033203125,-15.625,-2.5634765625,-2.3193359375,-4.455778501886206,-3.627401665036866,-0.9487336681946816
1778892974.5663772,0.01,0.2781982421875,-0.0927734375,0.8870849609375,-13.85498046875,-0.06103515625,-2.13623046875,-3.62711411139799,-3.667816128103287,-0.9852097571603824
1778892974.5663772,0.01,0.2877197265625,-0.0858154296875,0.908203125,-10.7421875,3.2958984375,-3.5400390625,-2.7932624908926504,-3.69991801111474,-1.0220484278564725
1778892974.5663772,0.01,0.29052734375,-0.0814208984375,0.9404296875,-8.056640625,5.9814453125,-4.57763671875,-1.9979169306892324,-3.7238739082226493,-1.0591673874531595
1778892974.7389867,0.01,0.2877197265625,-0.0794677734375,0.956298828125,-7.26318359375,8.60595703125,-3.90625,-1.3421034205947855,-3.740574009979069,-1.0964896270441682
1778892974.7389867,0.01,0.2821044921875,-0.0838623046875,0.94921875,-7.32421875,12.20703125,-3.41796875,-0.9127244307388693,-3.7518481492357374,-1.1339517378402422
1778892974.7389867,0.01,0.275390625,-0.0911865234375,0.937255859375,-9.033203125,16.845703125,-5.2490234375,-0.735933012820011,-3.7600914364535316,-1.1715114357686884
1778892974.7389867,0.01,0.283935546875,-0.071044921875,0.919921875,-13.61083984375,23.01025390625,-8.056640625,-1.0082810893300245,-3.7688125069642817,-1.2091559554857776
1778892974.7389867,0.01,0.2730712890625,-0.08056640625,0.8822021484375,-19.1650390625,37.109375,-9.82666015625,-2.9889456404492574,-3.788798640613178,-1.246944011223665
1778892974.7389867,0.01,0.239013671875,-0.116455078125,0.863037109375,-15.9912109375,49.49951171875,-15.56396484375,-7.1898432443704365,-3.8396925850372763,-1.2850864673519171
1778892974.7389867,0.01,0.236083984375,-0.1190185546875,0.8765869140625,-9.6435546875,54.931640625,-20.56884765625,-11.846095027170705,-3.934872276394982,-1.3239592916590783
1778892974.7389867,0.01,0.25048828125,-0.10546875,0.9146728515625,-0.91552734375,54.8095703125,-20.56884765625,-15.366857604815156,-4.070937039554911,-1.3639883382388278
1778892974.7389867,0.01,0.258544921875,-0.082763671875,0.9703369140625,3.96728515625,49.86572265625,-16.17431640625,-16.988123576544268,-4.232711945461708,-1.4055065831639109
1778892974.7389867,0.01,0.2547607421875,-0.0762939453125,1.0250244140625,5.126953125,42.236328125,-10.8642578125,-16.88991674605705,-4.402102147074714,-1.448680653626593
1778892974.7389867,0.01,0.23779296875,-0.079833984375,1.07080078125,6.7138671875,33.38623046875,-7.38525390625,-15.545763798138879,-4.564280549795694,-1.493512567110945
1778892974.7389867,0.01,0.22021484375,-0.0838623046875,1.090087890625,10.009765625,23.86474609375,-5.126953125,-13.530668329981514,-4.709662710436296,-1.539882283412105
1778892974.7389867,0.01,0.212890625,-0.090576171875,1.0770263671875,13.97705078125,14.83154296875,-4.33349609375,-11.365832322376113,-4.8341452136980845,-1.587601323032777
1778892974.7389867,0.01,0.2139892578125,-0.0885009765625,1.0467529296875,17.7001953125,7.568359375,-4.638671875,-9.46662430027744,-4.938307496811352,-1.6364635865853243
1778892974.7389867,0.01,0.21923828125,-0.08056640625,1.024658203125,18.24951171875,2.25830078125,-5.4931640625,-8.08171465518766,-5.026049191588678,-1.6862853700273244
1778892974.7389867,0.01,0.228515625,-0.0799560546875,1.0213623046875,14.16015625,-0.8544921875,-5.4931640625,-7.233482908291375,-5.102625179406073,-1.736928741882298
1778892974.7400208,0.01,0.234375,-0.090576171875,1.0177001953125,6.591796875,-1.64794921875,-4.57763671875,-6.906138898276463,-5.173323288438912,-1.7883084842215229
1778892974.7400208,0.01,0.231689453125,-0.1021728515625,1.001708984375,-1.52587890625,-0.6103515625,-2.685546875,-6.987552043386548,-5.242791743147227,-1.8403890593794536
1778892974.7400208,0.01,0.22509765625,-0.1083984375,0.9879150390625,-6.89697265625,1.15966796875,-0.48828125,-7.224569221873716,-5.313852349473528,-1.8931722798425574
1778892974.7400208,0.01,0.2225341796875,-0.0987548828125,0.987548828125,-5.126953125,2.74658203125,1.953125,-7.31225034506954,-5.386536447308244,-1.9466742238264663
1778892974.7400208,0.01,0.2178955078125,-0.0775146484375,1.0030517578125,-0.06103515625,3.2958984375,3.41796875,-7.197837608759915,-5.459086887077391,-2.0009023404983943
1778892974.7400208,0.01,0.2105712890625,-0.0694580078125,1.01953125,5.18798828125,2.99072265625,3.5400390625,-6.747905752340602,-5.528815603882894,-2.0558418529531957
1778892974.7400208,0.01,0.20556640625,-0.0816650390625,1.02294921875,10.68115234375,2.44140625,2.44140625,-5.899412900011567,-5.592052197144654,-2.1114461919583336
1778892974.7400208,0.01,0.1995849609375,-0.0980224609375,1.0184326171875,14.95361328125,1.3427734375,1.03759765625,-4.966621620229179,-5.646382369745858,-2.1676383647927864
1778892974.7400208,0.01,0.1973876953125,-0.1041259765625,1.0101318359375,16.2353515625,-0.30517578125,1.03759765625,-4.244362661911743,-5.692437291156563,-2.2243324630972983
1778892974.7400208,0.01,0.200927734375,-0.1053466796875,0.9989013671875,15.7470703125,-2.13623046875,2.50244140625,-3.779694379525993,-5.732557576363751,-2.2814574374349
1778892974.7400208,0.01,0.2017822265625,-0.1005859375,0.9913330078125,14.09912109375,-3.47900390625,2.74658203125,-3.5830201309151466,-5.769371148915957,-2.3389670810612984
1778892974.7400208,0.01,0.201904296875,-0.090576171875,0.9835205078125,13.12255859375,-4.2724609375,1.64794921875,-3.5515210063621305,-5.805043854602344,-2.3968391560788898
1778892974.7400208,0.01,0.2052001953125,-0.07958984375,0.9708251953125,13.916015625,-4.08935546875,0.30517578125,-3.5629080608971337,-5.84061599993864,-2.4550674553515948
1778892974.7400208,0.01,0.212158203125,-0.068359375,0.9598388671875,13.18359375,-3.35693359375,-0.06103515625,-3.583686327366184,-5.876348971879956,-2.5136522802106875
1778892974.9420457,0.01,0.21533203125,-0.0670166015625,0.953125,9.33837890625,-2.62451171875,0.79345703125,-3.689148270475159,-5.912713144869163,-2.572597590794433
1778892974.9420457,0.01,0.2122802734375,-0.073486328125,0.9505615234375,4.638671875,-2.197265625,1.953125,-3.8618557137878025,-5.950468164790478,-2.631913497342731
1778892974.9420457,0.01,0.2108154296875,-0.0784912109375,0.95166015625,1.40380859375,-1.953125,2.13623046875,-3.9933925476031513,-5.989744406097433,-2.6916145601971704
1778892974.9420457,0.01,0.2125244140625,-0.076904296875,0.9552001953125,0.48828125,-1.64794921875,0.79345703125,-4.042291377139529,-6.029922825721147,-2.7517128963562634
1778892974.9420457,0.01,0.2149658203125,-0.074462890625,0.961181640625,1.89208984375,-0.9765625,-0.8544921875,-4.014382140358621,-6.070206193308637,-2.8122135414514124
1778892974.9420457,0.01,0.2119140625,-0.0712890625,0.971923828125,4.33349609375,0.42724609375,-1.89208984375,-3.8856931948599502,-6.109706569984731,-2.8731131052678793
1778892974.9420457,0.01,0.2098388671875,-0.0694580078125,0.974853515625,6.7138671875,1.8310546875,-2.50244140625,-3.706240643257037,-6.147666239175315,-2.9343999693136795
1778892974.9420457,0.01,0.2149658203125,-0.0723876953125,0.95947265625,9.33837890625,2.13623046875,-2.99072265625,-3.6534343014952073,-6.184464613899077,-2.9960606235790515
1778892974.9420457,0.01,0.21923828125,-0.0703125,0.9395751953125,9.82666015625,2.01416015625,-3.35693359375,-3.7069357877577733,-6.221266464345342,-3.0580892789702734
1778892974.9420457,0.01,0.220458984375,-0.0635986328125,0.9351806640625,8.97216796875,2.197265625,-3.173828125,-3.702807187913895,-6.2583151792237,-3.1204871871881186
1778892974.9420457,0.01,0.2161865234375,-0.060546875,0.9539794921875,7.4462890625,3.2958984375,-2.86865234375,-3.5406090185048313,-6.294532260255794,-3.183251424385516
1778892974.9420457,0.01,0.210205078125,-0.064208984375,0.97802734375,5.67626953125,4.94384765625,-2.62451171875,-3.2646634194664665,-6.328558622445651,-3.246366878799023
1778892974.9420457,0.01,0.207763671875,-0.0655517578125,0.989013671875,4.2724609375,6.16455078125,-2.74658203125,-2.9562861987244142,-6.359663370536605,-3.3098079887639344
1778892974.9420457,0.01,0.2086181640625,-0.058837890625,0.994384765625,3.23486328125,6.103515625,-2.99072265625,-2.6335816783166326,-6.38761270992181,-3.3735443691662264
1778892974.9420457,0.01,0.211181640625,-0.05126953125,1.0006103515625,3.41796875,5.06591796875,-2.685546875,-2.4021142002890166,-6.412791189314838,-3.4375463886624096
1778892974.9420457,0.01,0.208984375,-0.044921875,1.0029296875,3.41796875,4.21142578125,-2.44140625,-2.2848874532121526,-6.436226197582344,-3.5017914755968955
1778892974.9420457,0.01,0.201171875,-0.0391845703125,0.99755859375,2.9296875,3.90625,-1.89208984375,-2.244922612564981,-6.458875247911229,-3.5662669828243634
1778892974.9420457,0.01,0.19970703125,-0.042724609375,0.985595703125,3.662109375,3.662109375,-1.03759765625,-2.3777243063329907,-6.481988482505719,-3.630971301476448
1778892974.9420457,0.01,0.205078125,-0.052490234375,0.976318359375,5.67626953125,4.08935546875,-1.0986328125,-2.653259062401337,-6.507143399349391,-3.6959169608857234
1778892974.9420457,0.01,0.207763671875,-0.0526123046875,0.96923828125,8.544921875,5.37109375,-0.8544921875,-3.0414587755376603,-6.535616988539086,-3.761130762825166
1778892975.108811,0.01,0.2059326171875,-0.044677734375,0.9652099609375,10.009765625,7.26318359375,-0.6103515625,-3.4842787783378437,-6.568245676308464,-3.8266500761494036
1778892975.108811,0.01,0.2003173828125,-0.0357666015625,0.9735107421875,9.6435546875,8.72802734375,-0.732421875,-3.864822022128876,-6.6049911803107975,-3.8925162604324997
1778892975.108811,0.01,0.1943359375,-0.030517578125,0.9923095703125,8.056640625,9.21630859375,-0.732421875,-4.161661819003356,-6.645123599516459,-3.958766834331636
1778892975.108811,0.01,0.1895751953125,-0.031005859375,1.008544921875,6.77490234375,8.85009765625,-0.67138671875,-4.4919427433221,-6.688391622328086,-4.025434410440859
1778892975.108811,0.01,0.186767578125,-0.0311279296875,1.0137939453125,6.53076171875,7.87353515625,-1.220703125,-4.954583773796871,-6.735624254913681,-4.092554489827068
1778892975.108811,0.01,0.1868896484375,-0.03173828125,1.009765625,6.53076171875,6.65283203125,-1.52587890625,-5.544567978948527,-6.788120013677408,-4.160173211170023
1778892975.108811,0.01,0.18798828125,-0.0367431640625,1.0029296875,5.55419921875,5.67626953125,-1.15966796875,-6.10429387241107,-6.846364322934206,-4.228345632853081
1778892975.108811,0.01,0.18798828125,-0.04443359375,0.9967041015625,3.84521484375,5.06591796875,-0.244140625,-6.5062988304778875,-6.909417286448651,-4.297124540899995
1778892975.108811,0.01,0.1866455078125,-0.047607421875,0.990234375,2.197265625,4.94384765625,-0.244140625,-6.74318027281722,-6.975664681965126,-4.366549950742064
1778892975.108811,0.01,0.186279296875,-0.0450439453125,0.9859619140625,0.54931640625,5.37109375,-0.67138671875,-6.835159605688629,-7.043556381357655,-4.436646056058677
1778892975.2771695,0.01,0.1842041015625,-0.0419921875,0.988525390625,-0.3662109375,5.55419921875,-0.8544921875,-6.814620300485652,-7.111805280888527,-4.507422864369908
1778892975.2771695,0.01,0.18115234375,-0.0374755859375,0.992919921875,0.0,5.4931640625,-1.03759765625,-6.828815203744687,-7.180022458409678,-4.578882003066399
1778892975.2771695,0.01,0.1785888671875,-0.0345458984375,0.993408203125,0.732421875,5.43212890625,-1.03759765625,-6.946997470258944,-7.248901521779697,-4.651026622967346
1778892975.2771695,0.01,0.1767578125,-0.0333251953125,1.002197265625,1.0986328125,5.18798828125,-1.03759765625,-7.0775042973985345,-7.319024030617984,-4.723866250729334
1778892975.2771695,0.01,0.177490234375,-0.0323486328125,1.012939453125,1.5869140625,4.638671875,-1.03759765625,-7.269455326397621,-7.390758828736965,-4.797415165026109
1778892975.2771695,0.01,0.177001953125,-0.0322265625,1.0111083984375,1.953125,3.96728515625,-1.15966796875,-7.526379976630329,-7.464738005252105,-4.871692649196055
1778892975.2771695,0.01,0.1754150390625,-0.0321044921875,1.008056640625,1.77001953125,3.173828125,-1.5869140625,-7.746194575852887,-7.541100878014521,-4.946721843612388
1778892975.2771695,0.01,0.177734375,-0.03125,1.0069580078125,1.77001953125,2.62451171875,-1.708984375,-7.9841774567184425,-7.619752738177377,-5.022526111693348
1778892975.2771695,0.01,0.181396484375,-0.0306396484375,1.001953125,1.5869140625,2.44140625,-1.40380859375,-8.226201359181976,-7.7008046322568795,-5.099128898545519
1778892975.2771695,0.01,0.1815185546875,-0.0340576171875,0.9932861328125,1.64794921875,1.953125,-1.28173828125,-8.424726579352244,-7.784059271949551,-5.176553218066552
1778892975.2771695,0.01,0.17919921875,-0.036865234375,0.9842529296875,1.708984375,1.77001953125,-1.46484375,-8.603847019865883,-7.869202139945641,-5.2548195251260275
1778892975.2771695,0.01,0.1785888671875,-0.0360107421875,0.9766845703125,1.3427734375,2.0751953125,-1.220703125,-8.784081120335792,-7.95614178064665,-5.333946244728989
1778892975.2771695,0.01,0.18115234375,-0.036376953125,0.9747314453125,0.732421875,2.62451171875,-0.732421875,-8.93595860319895,-8.044741979264323,-5.413950663528544
1778892975.2771695,0.01,0.1800537109375,-0.0379638671875,0.9814453125,0.06103515625,3.41796875,-0.48828125,-9.000450366310762,-8.13442402411187,-5.494846493545425
1778892975.2771695,0.01,0.17529296875,-0.0435791015625,0.9910888671875,-0.244140625,3.96728515625,-0.06103515625,-9.002253460142498,-8.224437543244138,-5.576640801382205
1778892975.2771695,0.01,0.172119140625,-0.0479736328125,0.99755859375,-0.3662109375,3.90625,-0.06103515625,-9.015923703751879,-8.314528429063609,-5.659335631243744
1778892975.2771695,0.01,0.1695556640625,-0.0440673828125,1.001220703125,-1.15966796875,3.41796875,-0.18310546875,-8.997755806225916,-8.404596826613497,-5.742931257522129
1778892975.2771695,0.01,0.1671142578125,-0.0379638671875,1.007080078125,-1.46484375,2.685546875,-0.54931640625,-8.940793876408103,-8.494289575026668,-5.8274256895303305
1778892975.2771695,0.01,0.1678466796875,-0.032470703125,1.0107421875,-0.30517578125,2.25830078125,-0.79345703125,-9.002842731795242,-8.584007758067685,-5.912817176195802
1778892975.2771695,0.01,0.1690673828125,-0.0289306640625,1.0101318359375,0.6103515625,2.38037109375,-0.67138671875,-9.154905801685565,-8.67479650073509,-5.999111197489817
1778892975.4552836,0.01,0.1695556640625,-0.0313720703125,1.0087890625,0.732421875,2.44140625,-0.3662109375,-9.27787709264755,-8.766960415206755,-6.086319982069526
1778892975.4552836,0.01,0.1712646484375,-0.036376953125,1.000732421875,0.48828125,2.13623046875,-0.244140625,-9.365199046799136,-8.860175795903988,-6.174455663125079
1778892975.4552836,0.01,0.17138671875,-0.0374755859375,0.991943359375,-0.3662109375,1.953125,-0.42724609375,-9.382355786133541,-8.953913570068652,-6.263526109954943
1778892975.4552836,0.01,0.1715087890625,-0.033447265625,0.99169921875,-0.6103515625,2.44140625,-0.54931640625,-9.42055531543991,-9.047928125576519,-6.353535318433169
1778892975.4552836,0.01,0.1705322265625,-0.029052734375,0.9952392578125,-0.30517578125,3.23486328125,-0.54931640625,-9.509304529290663,-9.142577424800171,-6.444487846185052
1778892975.4552836,0.01,0.166748046875,-0.026123046875,1.0,0.06103515625,3.5400390625,-0.67138671875,-9.618235684727376,-9.238215125870262,-6.536391808938404
1778892975.4552836,0.01,0.164306640625,-0.0272216796875,1.0032958984375,0.0,3.2958984375,-0.3662109375,-9.694268480127993,-9.334777646694539,-6.629256772801228
1778892975.4552836,0.01,0.1617431640625,-0.03173828125,1.00537109375,0.06103515625,2.9296875,-0.18310546875,-9.735556981993213,-9.431926774005145,-6.723090294904726
1778892975.4552836,0.01,0.15966796875,-0.0323486328125,1.0103759765625,0.18310546875,2.74658203125,-0.42724609375,-9.81388617130629,-9.529673989771643,-6.817898298723611
1778892975.4552836,0.01,0.163818359375,-0.0301513671875,1.0145263671875,-0.67138671875,2.62451171875,-0.30517578125,-9.864522067342433,-9.628066030964886,-6.913686998827293
1778892975.4552836,0.01,0.1666259765625,-0.027587890625,1.0108642578125,-1.40380859375,2.44140625,0.1220703125,-9.838911805665152,-9.726583200329925,-7.010460244983767
1778892975.4552836,0.01,0.163818359375,-0.0234375,1.0025634765625,-0.8544921875,2.25830078125,0.42724609375,-9.845930896914611,-9.825007413842824,-7.10821819805463
1778892975.4552836,0.01,0.1619873046875,-0.021240234375,1.00048828125,-0.18310546875,2.38037109375,0.91552734375,-9.901114102677171,-9.923742638840784,-7.206961948318049
1778892975.4552836,0.01,0.1619873046875,-0.025390625,1.0015869140625,-0.18310546875,2.5634765625,1.46484375,-9.907814186520236,-10.02278728028677,-7.306694597913687
1778892975.4552836,0.01,0.16162109375,-0.032958984375,0.9959716796875,0.06103515625,2.5634765625,1.5869140625,-9.899059468001434,-10.12182164855938,-7.407417642557918
1778892975.4552836,0.01,0.1622314453125,-0.0391845703125,0.9893798828125,0.06103515625,2.62451171875,1.40380859375,-9.898995358862557,-10.220811922693699,-7.509130810414183
1778892975.4552836,0.01,0.165771484375,-0.041748046875,0.991455078125,-0.8544921875,3.0517578125,1.03759765625,-9.859627756027503,-10.319605038268149,-7.611832895218992
1778892975.4552836,0.01,0.1676025390625,-0.0435791015625,0.998046875,-2.99072265625,3.662109375,1.0986328125,-9.628560721512326,-10.417045980655848,-7.715516150313612
1778892975.4552836,0.01,0.1629638671875,-0.0472412109375,1.0025634765625,-4.69970703125,4.150390625,1.28173828125,-9.20764412441797,-10.5112270048855,-7.820157515241319
1778892975.4552836,0.01,0.1573486328125,-0.0477294921875,1.00830078125,-5.2490234375,4.39453125,1.220703125,-8.764393183113153,-10.601087191423156,-7.925719086222863
1778892975.6280096,0.01,0.15625,-0.0460205078125,1.015625,-5.55419921875,4.39453125,0.732421875,-8.313846060395678,-10.686478387640701,-8.032156914118183
1778892975.6280096,0.01,0.15576171875,-0.0467529296875,1.0181884765625,-5.31005859375,4.0283203125,0.6103515625,-7.859148095730541,-10.767343358421332,-8.139426022848493
1778892975.6280096,0.01,0.152587890625,-0.05224609375,1.015625,-4.08935546875,3.5400390625,0.6103515625,-7.4762780200327175,-10.844020489000147,-8.247482842085601
1778892975.6280096,0.01,0.150146484375,-0.0570068359375,1.0147705078125,-2.8076171875,2.99072265625,0.30517578125,-7.21095529298295,-10.917456655565227,-8.356290227808428
1778892975.6280096,0.01,0.1494140625,-0.0576171875,1.0185546875,-2.685546875,2.5634765625,0.06103515625,-6.979362724643746,-10.98840824565336,-8.465819552314521
1778892975.6280096,0.01,0.14697265625,-0.0584716796875,1.0218505859375,-3.173828125,2.01416015625,-0.244140625,-6.6947809692639435,-11.056778964122898,-8.576045488363402
1778892975.6280096,0.01,0.142822265625,-0.058349609375,1.018798828125,-3.11279296875,1.28173828125,-0.6103515625,-6.431274443545346,-11.122409241186945,-8.68694142938995
1778892975.6290076,0.01,0.1422119140625,-0.057861328125,1.0120849609375,-2.86865234375,0.79345703125,-0.91552734375,-6.190646257932968,-11.185518844694338,-8.798481069819356
1778892975.6290076,0.01,0.1458740234375,-0.0584716796875,1.008544921875,-2.8076171875,0.54931640625,-1.0986328125,-5.927382383434372,-11.246108987901174,-8.910639208982333
1778892975.6290076,0.01,0.1473388671875,-0.0579833984375,1.009521484375,-2.9296875,0.54931640625,-1.220703125,-5.66121034296427,-11.304051951533166,-9.023390013679505
1778892975.6290076,0.01,0.1456298828125,-0.05810546875,1.01220703125,-2.99072265625,0.79345703125,-1.3427734375,-5.401050073762387,-11.359363253616799,-9.136707089705254
1778892975.6290076,0.01,0.1456298828125,-0.0606689453125,1.0115966796875,-2.9296875,1.03759765625,-1.708984375,-5.1472576666350776,-11.412104792318786,-9.250564429934933
1778892975.6290076,0.01,0.14794921875,-0.0604248046875,1.0096435546875,-3.11279296875,0.91552734375,-2.01416015625,-4.905712646682906,-11.462369643885376,-9.364936802115954
1778892975.6290076,0.01,0.1475830078125,-0.05859375,1.0120849609375,-3.84521484375,0.54931640625,-2.197265625,-4.610512949631604,-11.509950771866949,-9.479798404194716
1778892975.6290076,0.01,0.1478271484375,-0.0582275390625,1.0133056640625,-4.2724609375,0.1220703125,-2.0751953125,-4.272050260450217,-11.554363587917358,-9.595119975993637
1778892975.6290076,0.01,0.1512451171875,-0.05908203125,1.0111083984375,-4.21142578125,-0.30517578125,-1.77001953125,-3.9312027498570243,-11.595379852968893,-9.710868693198067
1778892975.6290076,0.01,0.15185546875,-0.05810546875,1.0086669921875,-3.47900390625,-0.48828125,-1.5869140625,-3.6750209999954544,-11.633410971718156,-9.827012647321503
1778892975.6290076,0.01,0.150634765625,-0.0557861328125,1.004150390625,-2.9296875,-0.6103515625,-1.52587890625,-3.4897949160444917,-11.669235051298356,-9.943525877436585
1778892975.6290076,0.01,0.155517578125,-0.05078125,1.0003662109375,-2.74658203125,-0.9765625,-1.28173828125,-3.299187485404442,-11.703179963305601,-10.060387952509604
1778892975.6290076,0.01,0.157470703125,-0.0452880859375,1.0029296875,-2.5634765625,-2.9296875,1.40380859375,-3.0348946171601776,-11.734850373818425,-10.177578104195224
1778892975.8207052,0.01,0.1474609375,-0.0565185546875,0.988525390625,-2.9296875,-4.45556640625,1.8310546875,-2.7552603831595546,-11.763801148820024,-10.295071361808416
1778892975.8207052,0.01,0.145263671875,-0.07421875,0.9727783203125,-2.86865234375,-1.77001953125,-0.18310546875,-2.5274183304572686,-11.790214542388108,-10.412841440264456
1778892975.8207052,0.01,0.152099609375,-0.06689453125,0.978515625,-2.13623046875,1.0986328125,-1.89208984375,-2.415480289112172,-11.814929035485955,-10.530867158153827
1778892975.8207052,0.01,0.1536865234375,-0.0537109375,0.986083984375,-1.77001953125,2.197265625,-1.52587890625,-2.404552430995417,-11.839029199086493,-10.649136949326689
1778892975.8207052,0.01,0.152587890625,-0.060302734375,0.9940185546875,-2.25830078125,2.44140625,-1.220703125,-2.2855680133990948,-11.862479801308465,-10.767644494328664
1778892975.8207052,0.01,0.150146484375,-0.0675048828125,1.0023193359375,-2.0751953125,2.0751953125,-1.220703125,-2.1798149634406165,-11.884806716192664,-10.88638092691617
1778892975.8207052,0.01,0.148193359375,-0.0648193359375,1.0111083984375,-2.38037109375,1.28173828125,-1.15966796875,-2.085862096051744,-11.906135101490126,-11.005335636004583
1778892975.8207052,0.01,0.1494140625,-0.0611572265625,1.0186767578125,-3.173828125,0.244140625,-1.0986328125,-1.916777253882997,-11.926148298239799,-11.124497053003232
1778892975.8207052,0.01,0.150146484375,-0.0631103515625,1.017333984375,-3.173828125,-0.48828125,-1.0986328125,-1.7629623230635367,-11.944546996124531,-11.243850529475054
1778892975.8207052,0.01,0.150390625,-0.0689697265625,1.00927734375,-2.8076171875,-0.79345703125,-0.9765625,-1.6565685348673558,-11.961644650414186,-11.363381487707748
1778892975.8207052,0.01,0.15087890625,-0.075439453125,1.0030517578125,-2.74658203125,-0.8544921875,-1.03759765625,-1.548073838410506,-11.977667862280576,-11.483078050271223
1778892975.8207052,0.01,0.153076171875,-0.0767822265625,0.994873046875,-2.685546875,-0.8544921875,-1.46484375,-1.4789993535513126,-11.992803228240385,-11.602930405723827
1778892975.8207052,0.01,0.153076171875,-0.07373046875,0.9874267578125,-2.0751953125,-0.732421875,-1.40380859375,-1.463613122962796,-12.007516290622956,-11.722932003318144
1778892975.8207052,0.01,0.15185546875,-0.0721435546875,0.983642578125,-1.953125,-0.8544921875,-1.5869140625,-1.4274326854770294,-12.021971519665154,-11.843079442369584
1778892975.8207052,0.01,0.1534423828125,-0.068603515625,0.979736328125,-1.28173828125,-0.54931640625,-1.953125,-1.4161347975513294,-12.036189357080296,-11.96337024675331
1778892975.8207052,0.01,0.1544189453125,-0.0635986328125,0.9814453125,-0.67138671875,0.18310546875,-1.953125,-1.4157240300533296,-12.05034865121832,-12.083802936794804
1778892975.8207052,0.01,0.154052734375,-0.0589599609375,0.9901123046875,-0.244140625,0.79345703125,-1.8310546875,-1.4060649013913622,-12.064457595875544,-12.204376968030273
1778892975.8207052,0.01,0.1546630859375,-0.0557861328125,0.9989013671875,0.0,0.9765625,-1.64794921875,-1.4024673754116979,-12.07850025725956,-12.325091757295949
1778892975.8207052,0.01,0.1551513671875,-0.0565185546875,1.003662109375,0.0,0.79345703125,-1.46484375,-1.41386211371859,-12.092581904705211,-12.445947168105773
1778892975.8207052,0.01,0.1544189453125,-0.0606689453125,1.002685546875,-0.18310546875,0.3662109375,-1.28173828125,-1.4441641395450713,-12.106872035971529,-12.566944437809157
1778892976.0041678,0.01,0.1546630859375,-0.061767578125,0.9962158203125,-0.42724609375,-0.1220703125,-1.3427734375,-1.4900472419887123,-12.121543092879199,-12.688086513453412
1778892976.0041678,0.01,0.15576171875,-0.0606689453125,0.994873046875,-1.3427734375,-0.30517578125,-1.220703125,-1.4769367083773481,-12.13637801263103,-12.809376118980962
1778892976.0041678,0.01,0.156494140625,-0.063720703125,0.9970703125,-2.197265625,-0.06103515625,-1.0986328125,-1.4357269917756526,-12.150941331131794,-12.930812715699776
1778892976.0041678,0.01,0.154541015625,-0.063720703125,0.99267578125,-2.13623046875,0.244140625,-1.0986328125,-1.4883932192654843,-12.165561932187,-13.05239523201637
1778892976.0041678,0.01,0.1544189453125,-0.0618896484375,0.98779296875,-1.708984375,0.42724609375,-0.91552734375,-1.5555021585017013,-12.180781409075836,-13.174126948722684
1778892976.0041678,0.01,0.15576171875,-0.0634765625,0.98828125,-1.220703125,0.54931640625,-0.8544921875,-1.5831018581880283,-12.196474429159284,-13.296013227913859
1778892976.005168,0.01,0.1534423828125,-0.0667724609375,0.994384765625,-0.91552734375,0.67138671875,-0.67138671875,-1.6030152910774493,-12.212405014905611,-13.418057625134184
1778892976.005168,0.01,0.1514892578125,-0.06982421875,0.9981689453125,-0.54931640625,0.732421875,-0.67138671875,-1.6467146622069126,-12.228653664672033,-13.540262918532072
1778892976.005168,0.01,0.1500244140625,-0.0701904296875,0.9971923828125,-0.42724609375,0.48828125,-0.79345703125,-1.7141552197304346,-12.24545801408172,-13.66263347692584
1778892976.005168,0.01,0.149169921875,-0.0687255859375,0.9942626953125,0.18310546875,0.1220703125,-0.79345703125,-1.7756256232689758,-12.262906918296718,-13.785175301587733
1778892976.005168,0.01,0.1505126953125,-0.067626953125,0.9873046875,1.03759765625,0.06103515625,-0.6103515625,-1.8489779254779242,-12.281029936040452,-13.90789498585942
1778892976.005168,0.01,0.150146484375,-0.0699462890625,0.982666015625,1.46484375,0.42724609375,-0.48828125,-1.9351629491123452,-12.299950640413403,-14.030799888741688
1778892976.005168,0.01,0.1484375,-0.0743408203125,0.9830322265625,1.8310546875,1.0986328125,-0.42724609375,-2.0332188331829553,-12.31979254932488,-14.15389860469038
1778892976.005168,0.01,0.1473388671875,-0.0753173828125,0.9844970703125,2.01416015625,1.708984375,-0.48828125,-2.1638275439861383,-12.340777781210726,-14.277201456343057
1778892976.005168,0.01,0.14697265625,-0.0732421875,0.9898681640625,1.8310546875,2.13623046875,-0.732421875,-2.2997619002374217,-12.363095728431844,-14.40072082389127
1778892976.005168,0.01,0.146728515625,-0.0689697265625,1.001708984375,1.46484375,2.38037109375,-1.0986328125,-2.4204605175634137,-12.386696840520848,-14.524469786736033
1778892976.005168,0.01,0.145263671875,-0.06640625,1.012939453125,1.15966796875,2.197265625,-1.03759765625,-2.5490446224512544,-12.411544366220921,-14.648460992769742
1778892976.005168,0.01,0.1444091796875,-0.0684814453125,1.0159912109375,1.0986328125,1.708984375,-0.79345703125,-2.688981050395566,-12.437734494585156,-14.772707387073773
1778892976.005168,0.01,0.144287109375,-0.06982421875,1.0164794921875,0.8544921875,1.220703125,-0.91552734375,-2.807622869709225,-12.46521751418568,-14.897222147117628
1778892976.005168,0.01,0.1435546875,-0.07080078125,1.0181884765625,0.91552734375,0.732421875,-0.9765625,-2.892577339355487,-12.493718515231004,-15.02201682726471
1778892976.1758566,0.01,0.1427001953125,-0.0716552734375,1.0142822265625,1.3427734375,0.54931640625,-1.03759765625,-3.0008211734053782,-12.523185507794809,-15.14710134737984
1778892976.1758566,0.01,0.1414794921875,-0.0712890625,1.0087890625,1.3427734375,0.42724609375,-1.0986328125,-3.11425379332578,-12.553760882628465,-15.272486079331957
1778892976.1758566,0.01,0.14013671875,-0.0714111328125,1.007568359375,1.0986328125,0.30517578125,-1.40380859375,-3.1941064418374205,-12.585302683804281,-15.398181397164121
1778892976.1758566,0.01,0.140380859375,-0.070556640625,1.0069580078125,0.79345703125,0.30517578125,-1.46484375,-3.258459370535924,-12.617565512866149,-15.524195738147473
1778892976.1758566,0.01,0.14111328125,-0.0682373046875,1.0052490234375,0.6103515625,0.30517578125,-1.28173828125,-3.3268382506485032,-12.65049200097207,-15.650536025716663
1778892976.1758566,0.01,0.1412353515625,-0.066162109375,1.0059814453125,0.42724609375,0.42724609375,-1.220703125,-3.3951129872991537,-12.684101757161809,-15.777208994507333
1778892976.1758566,0.01,0.141845703125,-0.0653076171875,1.009521484375,0.30517578125,0.42724609375,-1.28173828125,-3.442798442253234,-12.718291314309571,-15.90422095986469
1778892976.1758566,0.01,0.1435546875,-0.064453125,1.0126953125,0.6103515625,0.48828125,-1.28173828125,-3.490871013009091,-12.752959661585882,-16.031577214744168
1778892976.1758566,0.01,0.144287109375,-0.0638427734375,1.0135498046875,0.91552734375,0.3662109375,-1.3427734375,-3.5507538436412887,-12.788167785869133,-16.15928285198144
1778892976.1758566,0.01,0.1441650390625,-0.0645751953125,1.0125732421875,0.91552734375,0.0,-1.40380859375,-3.5956707452548375,-12.823899908813614,-16.287343190454855
1778892976.3536863,0.01,0.14404296875,-0.0648193359375,1.0103759765625,0.42724609375,-0.3662109375,-1.3427734375,-3.6172239254362983,-12.85996438216707,-16.415762511909758
1778892976.3536863,0.01,0.1435546875,-0.0648193359375,1.0084228515625,-0.42724609375,-0.6103515625,-1.220703125,-3.619854795243116,-12.896149775770466,-16.544543082699445
1778892976.3536863,0.01,0.143310546875,-0.0654296875,1.0074462890625,-1.15966796875,-0.6103515625,-1.220703125,-3.6147167783936727,-12.93232263363865,-16.67368544474649
1778892976.3536863,0.01,0.1435546875,-0.0662841796875,1.0068359375,-1.3427734375,-0.48828125,-1.220703125,-3.615651704667032,-12.968474476053954,-16.803189430294953
1778892976.3536863,0.01,0.143310546875,-0.06787109375,1.006103515625,-1.220703125,-0.48828125,-1.0986328125,-3.6229629035502864,-13.004667549095041,-16.9330551404207
1778892976.3536863,0.01,0.1435546875,-0.06982421875,1.00146484375,-0.79345703125,-0.6103515625,-0.79345703125,-3.6366888561955646,-13.04096580789377,-17.063283307205644
1778892976.3536863,0.01,0.144775390625,-0.0694580078125,0.99560546875,-0.3662109375,-0.732421875,-0.79345703125,-3.642162212208663,-13.07736006323579,-17.193874936561294
1778892976.3536863,0.01,0.1446533203125,-0.067138671875,0.991943359375,0.1220703125,-0.54931640625,-0.732421875,-3.662595127067986,-13.113883849932174,-17.324831156127132
1778892976.3536863,0.01,0.142822265625,-0.066162109375,0.991455078125,0.732421875,-0.1220703125,-0.732421875,-3.7089305047076078,-13.150741478091051,-17.456154282767248
1778892976.3536863,0.01,0.141357421875,-0.064208984375,0.99560546875,1.03759765625,0.54931640625,-0.9765625,-3.7810861322554805,-13.188191561275866,-17.587848947964083
1778892976.3536863,0.01,0.141357421875,-0.0611572265625,1.0013427734375,0.91552734375,0.8544921875,-0.9765625,-3.8611906301210706,-13.226402945087749,-17.719921920495903
1778892976.3536863,0.01,0.1422119140625,-0.061767578125,1.005126953125,0.54931640625,0.67138671875,-0.67138671875,-3.927232317998146,-13.265345059828345,-17.852380660520485
1778892976.3536863,0.01,0.14208984375,-0.0634765625,1.0068359375,0.54931640625,0.42724609375,-0.6103515625,-3.9911567436170357,-13.30493700513642,-17.98523207084531
1778892976.3536863,0.01,0.143310546875,-0.0618896484375,1.0064697265625,0.6103515625,0.06103515625,-0.79345703125,-4.029257728927482,-13.345039077499143,-18.118481951258488
1778892976.3536863,0.01,0.145751953125,-0.0614013671875,1.00390625,0.6103515625,-0.06103515625,-0.6103515625,-4.055382811609844,-13.38546228020183,-18.252134458046992
1778892976.3536863,0.01,0.1458740234375,-0.0635986328125,1.0003662109375,0.6103515625,0.06103515625,-0.30517578125,-4.110725208661439,-13.426292820303187,-18.386193233549516
1778892976.3536863,0.01,0.1451416015625,-0.0670166015625,0.9964599609375,0.732421875,0.30517578125,-0.18310546875,-4.1915925325715415,-13.467804409009352,-18.520663719696078
1778892976.3536863,0.01,0.1444091796875,-0.0692138671875,0.995849609375,0.8544921875,0.732421875,-0.1220703125,-4.294061780808279,-13.510232680576252,-18.655553905144007
1778892976.3536863,0.01,0.142578125,-0.068359375,0.9998779296875,0.67138671875,1.0986328125,-0.244140625,-4.423652385865879,-13.553821251409623,-18.790874174803935
1778892976.3536863,0.01,0.140869140625,-0.066162109375,1.00537109375,0.3662109375,1.28173828125,-0.244140625,-4.567964170284085,-13.598779334190374,-18.926637177731937
1778892976.5412097,0.01,0.1396484375,-0.0638427734375,1.009521484375,0.18310546875,1.15966796875,-0.1220703125,-4.707156205386504,-13.645154936068726,-19.062856849083232
1778892976.5412097,0.01,0.13916015625,-0.0626220703125,1.01220703125,0.54931640625,0.8544921875,-0.06103515625,-4.81884279285778,-13.692784931059947,-19.199546548418876
1778892976.5412097,0.01,0.139404296875,-0.0648193359375,1.01318359375,0.9765625,0.54931640625,0.06103515625,-4.898532493182973,-13.74137180749015,-19.336717332111625
1778892976.5412097,0.01,0.1387939453125,-0.069580078125,1.0107421875,0.9765625,0.42724609375,0.244140625,-4.983218320444859,-13.79078056155829,-19.47437809395687
1778892976.5412097,0.01,0.1375732421875,-0.071044921875,1.009521484375,0.18310546875,0.244140625,0.06103515625,-5.06071471023697,-13.8410002267117,-19.612536997898218
1778892976.5412097,0.01,0.13818359375,-0.0687255859375,1.0096435546875,-0.3662109375,0.1220703125,0.0,-5.114411537203774,-13.891875857948904,-19.75120137832152
1778892976.5412097,0.01,0.1402587890625,-0.067138671875,1.0047607421875,-0.06103515625,0.244140625,0.06103515625,-5.180063029703975,-13.943348230783442,-19.890377498765183
1778892976.5412097,0.01,0.1407470703125,-0.0682373046875,0.998779296875,0.3662109375,0.42724609375,0.1220703125,-5.273807306077641,-13.99561758246235,-20.030072327831412
1778892976.5412097,0.01,0.1402587890625,-0.07177734375,0.995849609375,1.03759765625,0.6103515625,0.18310546875,-5.377881992137722,-14.048876028953426,-20.17029479588849
1778892976.5412097,0.01,0.140625,-0.07568359375,0.9949951171875,1.28173828125,0.8544921875,-0.06103515625,-5.488794990507382,-14.103209413866653,-20.311055223102592
1778892976.5412097,0.01,0.140380859375,-0.074951171875,0.99365234375,1.03759765625,1.0986328125,-0.244140625,-5.636930390387934,-14.15883804077113,-20.45236546037578
1778892976.5412097,0.01,0.137939453125,-0.0694580078125,0.99267578125,0.8544921875,1.3427734375,-0.1220703125,-5.835436506987289,-14.216199875258006,-20.594240649955925
1778892976.5412097,0.01,0.13525390625,-0.064208984375,1.001953125,0.732421875,1.46484375,-0.18310546875,-6.023266753717234,-14.275493391561529,-20.736699116290023
1778892976.5412097,0.01,0.135986328125,-0.06298828125,1.0157470703125,0.732421875,1.46484375,-0.30517578125,-6.167289036105974,-14.336446170510644,-20.879758814100384
1778892976.5412097,0.01,0.1365966796875,-0.0640869140625,1.0177001953125,0.8544921875,0.91552734375,0.18310546875,-6.288161437277704,-14.398723422877563,-21.023434662067324
1778892976.5412097,0.01,0.135498046875,-0.0650634765625,1.0135498046875,0.91552734375,0.0,0.244140625,-6.353694325034722,-14.461932701689125,-21.167737942690156
1778892976.5412097,0.01,0.137451171875,-0.06640625,1.0108642578125,1.220703125,-0.6103515625,0.0,-6.332355061781245,-14.525362948623206,-21.31267442094172
1778892976.542208,0.01,0.139404296875,-0.0684814453125,1.005615234375,1.46484375,-0.48828125,-0.06103515625,-6.327697376193897,-14.588663210813081,-21.4582445517389
1778892976.542208,0.01,0.138427734375,-0.0692138671875,0.998046875,1.15966796875,-0.06103515625,0.18310546875,-6.39511630767193,-14.65227727923241,-21.604449254189127
1778892976.542208,0.01,0.1378173828125,-0.0682373046875,0.9964599609375,0.8544921875,0.30517578125,0.18310546875,-6.482508316351298,-14.716665402352525,-21.751293967597054
1778892976.7289991,0.01,0.1368408203125,-0.06982421875,0.998291015625,0.732421875,0.6103515625,0.0,-6.588559974564141,-14.782020743807102,-21.89878739832785
1778892976.7289991,0.01,0.1351318359375,-0.0706787109375,0.9990234375,0.6103515625,0.8544921875,-0.06103515625,-6.727349870156656,-14.848600293030707,-22.04694050351204
1778892976.7289991,0.01,0.1356201171875,-0.0684814453125,1.0010986328125,0.54931640625,0.91552734375,-0.1220703125,-6.856593130511565,-14.916520008034048,-22.195766105017363
1778892976.7289991,0.01,0.13623046875,-0.066650390625,1.0009765625,0.91552734375,0.8544921875,0.0,-6.985707349407155,-14.985731510433641,-22.3452773626097
1778892976.7289991,0.01,0.13427734375,-0.068359375,1.0052490234375,0.6103515625,0.8544921875,-0.06103515625,-7.1227482983982515,-15.05627378867267,-22.495487389105232
1778892976.7299998,0.01,0.133056640625,-0.0711669921875,1.0157470703125,0.1220703125,0.91552734375,-0.3662109375,-7.246159954060561,-15.128118329934964,-22.64640934969827
1778892976.7299998,0.01,0.1337890625,-0.0673828125,1.0208740234375,0.1220703125,0.6103515625,-0.3662109375,-7.345340642943436,-15.201075832919983,-22.798055320512546
1778892976.7299998,0.01,0.135009765625,-0.0625,1.0177001953125,0.48828125,0.0,-0.18310546875,-7.396356360128387,-15.274784317935342,-22.950434621266822
1778892976.7299998,0.01,0.1353759765625,-0.063720703125,1.0108642578125,1.3427734375,-0.67138671875,-0.1220703125,-7.390654017823732,-15.348719369825103,-23.103552139705624
1778892976.7299998,0.01,0.1351318359375,-0.0701904296875,1.00537109375,1.5869140625,-0.91552734375,-0.48828125,-7.35672864599135,-15.422456283144179,-23.25740801797047
1778892976.7299998,0.01,0.1356201171875,-0.075927734375,1.001708984375,0.6103515625,-0.91552734375,-0.79345703125,-7.304916332434858,-15.49576450803631,-23.41199912192637
1778892976.7299998,0.01,0.13623046875,-0.0738525390625,0.9962158203125,-0.48828125,-0.79345703125,-0.8544921875,-7.273440045558792,-15.568656289926277,-23.567321225916185
1778892976.7299998,0.01,0.1368408203125,-0.068359375,0.990966796875,-0.3662109375,-0.48828125,-0.91552734375,-7.279484016995344,-15.641420910239049,-23.723371611917013
1778892976.7299998,0.01,0.1358642578125,-0.06591796875,0.9912109375,0.79345703125,0.06103515625,-0.9765625,-7.349468913534469,-15.714565674891698,-23.88015154484267
1778892976.7299998,0.01,0.1346435546875,-0.0667724609375,0.9984130859375,1.3427734375,0.6103515625,-1.03759765625,-7.464250481441303,-15.788634271866577,-24.03766754457646
1778892976.7299998,0.01,0.1337890625,-0.06884765625,1.0062255859375,0.9765625,0.48828125,-0.8544921875,-7.559027131831526,-15.863750659932942,-24.19592946923546
1778892976.7299998,0.01,0.1331787109375,-0.0697021484375,1.0078125,0.54931640625,0.0,-0.8544921875,-7.610223606960186,-15.9395969136269,-24.354946207103257
1778892976.7299998,0.01,0.134033203125,-0.0670166015625,1.004638671875,0.42724609375,-0.3662109375,-0.9765625,-7.62384145164577,-16.01576723891993,-24.51472302786599
1778892976.7299998,0.01,0.1357421875,-0.064697265625,1.0023193359375,0.30517578125,-0.244140625,-0.91552734375,-7.6385220070429165,-16.092079056213375,-24.675262259341658
1778892976.7299998,0.01,0.135986328125,-0.06396484375,1.0018310546875,0.30517578125,0.06103515625,-0.9765625,-7.690865128619448,-16.168725991891687,-24.836566284582183
1778892976.9099445,0.01,0.133544921875,-0.063720703125,1.0059814453125,0.48828125,0.30517578125,-1.03759765625,-7.789074150922593,-16.246125688289396,-24.99864054298309
1778892976.9099445,0.01,0.1326904296875,-0.065673828125,1.01220703125,0.67138671875,0.42724609375,-1.03759765625,-7.8800667089191245,-16.324471392588606,-25.161493528387478
1778892976.9099445,0.01,0.133544921875,-0.066162109375,1.01171875,0.732421875,0.06103515625,-0.9765625,-7.927470730834843,-16.403509079787376,-25.325133430749357
1778892976.9099445,0.01,0.1336669921875,-0.06494140625,1.0062255859375,0.8544921875,-0.54931640625,-0.79345703125,-7.929629455654076,-16.482794580719823,-25.489564949051893
1778892976.9099445,0.01,0.134521484375,-0.0667724609375,1.000732421875,1.15966796875,-0.91552734375,-0.91552734375,-7.8841578382560344,-16.561863517189373,-25.65478823954144
1778892976.9099445,0.01,0.1358642578125,-0.0697021484375,0.9974365234375,1.220703125,-0.732421875,-1.0986328125,-7.847906356631802,-16.640523838163812,-25.820800176318205
1778892976.9099445,0.01,0.1357421875,-0.069091796875,0.9959716796875,1.0986328125,-0.3662109375,-1.0986328125,-7.86722708346018,-16.719099505364273,-25.987598293035845
1778892976.9099445,0.01,0.1348876953125,-0.0667724609375,0.9942626953125,0.91552734375,-0.06103515625,-1.0986328125,-7.926006626466721,-16.798065673913907,-26.155184118932237
1778892976.9099445,0.01,0.1351318359375,-0.0662841796875,0.9901123046875,1.03759765625,0.18310546875,-0.91552734375,-7.994264583898127,-16.877667029965732,-26.323562782451635
1778892976.9099445,0.01,0.1361083984375,-0.0667724609375,0.987548828125,0.67138671875,0.3662109375,-0.8544921875,-8.068134424042738,-16.957979025005436,-26.49274101272649
1778892976.910945,0.01,0.1363525390625,-0.0673828125,0.990478515625,0.18310546875,0.732421875,-0.8544921875,-8.180390931385757,-17.03922165178258,-26.66272701611043
1778892976.910945,0.01,0.1341552734375,-0.0672607421875,0.99951171875,-0.1220703125,1.220703125,-0.9765625,-8.364369136684479,-17.12194545212293,-26.833532851629958
1778892976.910945,0.01,0.1328125,-0.0662841796875,1.01318359375,-0.42724609375,1.52587890625,-1.15966796875,-8.576385217046244,-17.20664922389158,-27.00517582501003
1778892976.910945,0.01,0.1329345703125,-0.064208984375,1.022216796875,-0.48828125,1.220703125,-0.9765625,-8.751489127664966,-17.293288595615138,-27.177675514107566
1778892976.910945,0.01,0.132080078125,-0.06298828125,1.0223388671875,-0.42724609375,0.18310546875,-0.79345703125,-8.829644183162573,-17.381194262169277,-27.35104792839649
1778892976.910945,0.01,0.1317138671875,-0.0662841796875,1.01611328125,-0.1220703125,-0.79345703125,-0.67138671875,-8.794204412367247,-17.469313505146925,-27.52530046723307
1778892976.910945,0.01,0.133056640625,-0.0693359375,1.0076904296875,0.18310546875,-1.15966796875,-0.79345703125,-8.707547572563739,-17.55682226507158,-27.700431146084163
1778892976.910945,0.01,0.1331787109375,-0.0697021484375,1.0008544921875,0.30517578125,-0.8544921875,-0.8544921875,-8.669584732780876,-17.643707926598303,-27.876433797042512
1778892976.910945,0.01,0.132080078125,-0.0697021484375,0.99755859375,0.18310546875,-0.30517578125,-0.91552734375,-8.698590284898803,-17.7305488016867,-28.053305080683938
1778892976.910945,0.01,0.13037109375,-0.069580078125,0.9962158203125,0.0,0.0,-0.9765625,-8.764008526761637,-17.817861795745003,-28.231047133671098
1778892977.0771775,0.01,0.129150390625,-0.069091796875,0.9967041015625,-0.06103515625,0.18310546875,-1.0986328125,-8.844317898815127,-17.905903427872886,-28.409665959789187
1778892977.0771775,0.01,0.128662109375,-0.068359375,1.0,-0.1220703125,0.3662109375,-1.03759765625,-8.937862002364515,-17.994814327378784,-28.589169548565444
1778892977.0771775,0.01,0.128173828125,-0.0682373046875,1.0062255859375,-0.18310546875,0.54931640625,-1.0986328125,-9.050873296912945,-18.08475800387517,-28.769567410221715
1778892977.0771775,0.01,0.1292724609375,-0.0693359375,1.0123291015625,0.18310546875,0.54931640625,-1.15966796875,-9.146864624947256,-18.17574669348447,-28.950869933708514
1778892977.0771775,0.01,0.1304931640625,-0.0687255859375,1.0147705078125,0.48828125,0.30517578125,-1.0986328125,-9.218138787298923,-18.267571710545703,-29.133086525728665
1778892977.0771775,0.01,0.1319580078125,-0.0675048828125,1.0145263671875,0.48828125,-0.1220703125,-1.0986328125,-9.244201064673886,-18.359883409805565,-29.31622380133042
1778892977.0771775,0.01,0.132568359375,-0.0667724609375,1.0115966796875,0.54931640625,-0.54931640625,-1.03759765625,-9.232711534762931,-18.45226797280275,-29.50028455824346
1778892977.0771775,0.01,0.1328125,-0.0654296875,1.0091552734375,0.3662109375,-0.67138671875,-1.03759765625,-9.215279886332722,-18.544507929908228,-29.685268437757017
1778892977.0771775,0.01,0.1324462890625,-0.066162109375,1.0084228515625,0.0,-0.732421875,-1.03759765625,-9.197375322589629,-18.63657120595284,-29.871173833436323
1778892977.0771775,0.01,0.1317138671875,-0.0675048828125,1.00634765625,0.0,-0.67138671875,-1.03759765625,-9.187183047970676,-18.728493997805643,-30.057999159455115
1778892977.0771775,0.01,0.131103515625,-0.067138671875,1.0045166015625,0.0,-0.54931640625,-1.15966796875,-9.191469232000733,-18.8203872592055,-30.24574356574017
1778892977.0771775,0.01,0.1307373046875,-0.0654296875,1.00537109375,0.18310546875,-0.48828125,-1.220703125,-9.20256503419624,-18.912357430536485,-30.43440728918888
1778892977.0771775,0.01,0.130859375,-0.0635986328125,1.0084228515625,0.244140625,-0.54931640625,-1.15966796875,-9.20450113713577,-19.004392761393145,-30.62399104014853
1778892977.0771775,0.01,0.131103515625,-0.063720703125,1.0084228515625,0.48828125,-0.732421875,-1.15966796875,-9.179574620802313,-19.096313140182836,-30.814494569656407
1778892977.0771775,0.01,0.132568359375,-0.062744140625,1.002197265625,0.8544921875,-0.9765625,-1.03759765625,-9.113377206716633,-19.18777789932043,-31.005915024853923
1778892977.0771775,0.01,0.1336669921875,-0.0626220703125,0.996826171875,0.244140625,-0.9765625,-0.8544921875,-9.056299359734723,-19.278626282152686,-31.19824704576129
1778892977.0771775,0.01,0.1343994140625,-0.0648193359375,0.99462890625,-0.3662109375,-0.6103515625,-0.9765625,-9.042920899089614,-19.369122383446808,-31.391485789089288
1778892977.0771775,0.01,0.134521484375,-0.063720703125,0.992431640625,-0.48828125,0.06103515625,-1.220703125,-9.107303300463109,-19.45987350444457,-31.585630768528745
1778892977.0771775,0.01,0.134521484375,-0.060302734375,0.9957275390625,-0.54931640625,0.79345703125,-0.91552734375,-9.251814537014441,-19.551669093631958,-31.780688481519128
1778892977.0771775,0.01,0.1334228515625,-0.06103515625,1.0030517578125,-0.30517578125,0.91552734375,-0.54931640625,-9.41440489173332,-19.645000190775697,-31.976671827941168
1778892977.2934053,0.01,0.131103515625,-0.064453125,1.0089111328125,-0.06103515625,0.6103515625,-0.6103515625,-9.552838116130392,-19.739836405815016,-32.17359601092412
1778892977.2934053,0.01,0.13037109375,-0.0655517578125,1.01171875,0.30517578125,0.244140625,-0.67138671875,-9.636816485803504,-19.835784678824684,-32.37147411634732
1778892977.2944036,0.01,0.1304931640625,-0.0660400390625,1.0115966796875,0.18310546875,0.06103515625,-0.48828125,-9.694005462704977,-19.932438788567225,-32.57031523368428
1778892977.2944036,0.01,0.13134765625,-0.0673828125,1.0098876953125,-0.48828125,0.0,-0.48828125,-9.743819530265256,-20.029627913532078,-32.77012556719478
1778892977.2944036,0.01,0.131591796875,-0.068115234375,1.00927734375,-0.79345703125,0.06103515625,-0.48828125,-9.811531567917907,-20.127404669022994,-32.970910730107555
1778892977.2944036,0.01,0.130615234375,-0.0677490234375,1.0103759765625,-0.3662109375,0.1220703125,-0.48828125,-9.894862734140018,-20.225936640533284,-33.172677436655334
1778892977.2944036,0.01,0.12939453125,-0.068359375,1.009765625,0.30517578125,0.06103515625,-0.42724609375,-9.962487590794796,-20.32522339215796,-33.37543323681879
1778892977.2944036,0.01,0.1292724609375,-0.0701904296875,1.005859375,0.54931640625,-0.1220703125,-0.54931640625,-9.992410665547931,-20.424997883439673,-33.57918434319678
1778892977.2944036,0.01,0.12939453125,-0.07080078125,1.00048828125,0.67138671875,-0.30517578125,-0.6103515625,-9.999425269164261,-20.524957063113234,-33.78393411792954
1778892977.2944036,0.01,0.1292724609375,-0.0703125,0.9986572265625,0.30517578125,-0.1220703125,-0.6103515625,-10.037595440871401,-20.625142166663412,-33.98968461407842
1778892977.2944036,0.01,0.1282958984375,-0.0706787109375,1.0023193359375,-0.1220703125,0.244140625,-0.732421875,-10.132698530233162,-20.725993636518936,-34.196440293094334
1778892977.2944036,0.01,0.128173828125,-0.06982421875,1.0054931640625,0.0,0.3662109375,-0.8544921875,-10.230928809543306,-20.827811773217817,-34.40420932014302
1778892977.2944036,0.01,0.1304931640625,-0.0687255859375,1.0064697265625,0.42724609375,0.18310546875,-0.732421875,-10.27923490014192,-20.930362591766244,-34.61300019196794
1778892977.2944036,0.01,0.1319580078125,-0.07080078125,1.00634765625,0.79345703125,-0.06103515625,-0.6103515625,-10.301812199448753,-21.033267827264197,-34.822818344063094
1778892977.2944036,0.01,0.1319580078125,-0.0714111328125,1.003173828125,0.91552734375,-0.244140625,-0.67138671875,-10.314431643642227,-21.13634904647965,-35.033666428431815
1778892977.2944036,0.01,0.1318359375,-0.069580078125,1.0009765625,0.42724609375,-0.18310546875,-0.67138671875,-10.345245874824329,-21.239647434071983,-35.24554641083457
1778892977.2944036,0.01,0.130859375,-0.0692138671875,1.003662109375,-0.30517578125,0.06103515625,-0.6103515625,-10.425830875502722,-21.34350281782362,-35.45846216209405
1778892977.2944036,0.01,0.129638671875,-0.069091796875,1.0093994140625,-0.67138671875,0.30517578125,-0.732421875,-10.5438972582194,-21.44835145849223,-35.67242143347563
1778892977.2944036,0.01,0.130126953125,-0.0667724609375,1.0115966796875,-0.67138671875,0.18310546875,-0.732421875,-10.629303726816604,-21.55421746341741,-35.88743427808517
1778892977.2944036,0.01,0.130126953125,-0.06201171875,1.00927734375,-0.18310546875,-0.244140625,-0.54931640625,-10.662671211776347,-21.660677338110375,-36.103508752092814
1778892977.4779036,0.01,0.1307373046875,-0.06005859375,1.005859375,0.54931640625,-0.48828125,-0.48828125,-10.651661710100187,-21.76724900271976,-36.320648383796964
1778892977.4779036,0.01,0.1317138671875,-0.0631103515625,1.000732421875,1.15966796875,-0.30517578125,-0.54931640625,-10.63911363320649,-21.87370287943629,-36.538853143207746
1778892977.4779036,0.01,0.131591796875,-0.0662841796875,0.99658203125,0.9765625,0.06103515625,-0.42724609375,-10.676076809656982,-21.980278831650608,-36.75812305176318
1778892977.4779036,0.01,0.131103515625,-0.067626953125,0.9964599609375,0.244140625,0.3662109375,-0.30517578125,-10.766114589941166,-22.0874897886486,-36.97846189486467
1778892977.4779036,0.01,0.1298828125,-0.066162109375,0.9990234375,-0.1220703125,0.54931640625,-0.244140625,-10.894092526217758,-22.195790824229395,-37.19987829792906
1778892977.4779036,0.01,0.12939453125,-0.064453125,1.004638671875,0.06103515625,0.6103515625,-0.30517578125,-11.026361636793672,-22.30539309504445,-37.42238421752543
1778892977.4779036,0.01,0.1295166015625,-0.0655517578125,1.0108642578125,0.6103515625,0.54931640625,-0.3662109375,-11.14004904460377,-22.41622514845144,-37.64599230874291
1778892977.4779036,0.01,0.12939453125,-0.0699462890625,1.01220703125,1.0986328125,0.30517578125,-0.30517578125,-11.211133765931807,-22.527981062504118,-37.87071333979769
1778892977.4779036,0.01,0.128662109375,-0.07421875,1.0096435546875,1.28173828125,-0.1220703125,-0.30517578125,-11.233180986823495,-22.640202636267894,-38.09655425829155
1778892977.4779036,0.01,0.1285400390625,-0.074462890625,1.005859375,0.91552734375,-0.48828125,-0.42724609375,-11.219356612474801,-22.752465324264385,-38.323517598094206
1778892977.6485887,0.01,0.129150390625,-0.073486328125,1.0025634765625,0.244140625,-0.48828125,-0.54931640625,-11.210714879935132,-22.864615681726434,-38.55160300312416
1778892977.6485887,0.01,0.1278076171875,-0.072998046875,1.004150390625,-0.48828125,-0.18310546875,-0.67138671875,-11.272274482071497,-22.97703062853647,-38.78081123467547
1778892977.6485887,0.01,0.126708984375,-0.0712890625,1.007080078125,-0.30517578125,-0.06103515625,-0.732421875,-11.345346025849862,-23.090118731076075,-39.01114698147353
1778892977.6485887,0.01,0.1275634765625,-0.070556640625,1.006103515625,0.54931640625,0.06103515625,-0.6103515625,-11.388584893767352,-23.203788385674162,-39.24261651705728
1778892977.6485887,0.01,0.1273193359375,-0.072509765625,1.004638671875,1.220703125,0.0,-0.6103515625,-11.422858677183017,-23.317845603528912,-39.47522468700329
1778892977.6485887,0.01,0.1280517578125,-0.0748291015625,1.0006103515625,1.5869140625,-0.244140625,-0.6103515625,-11.41111554185131,-23.432015474624084,-39.70897399239406
1778892977.6485887,0.01,0.12939453125,-0.074951171875,0.9937744140625,1.5869140625,-0.244140625,-0.6103515625,-11.387098446490986,-23.546006544565795,-39.943864102490004
1778892977.6485887,0.01,0.130126953125,-0.072509765625,0.9876708984375,1.5869140625,0.1220703125,-0.6103515625,-11.407652007024081,-23.65998029683337,-40.179894036697
1778892977.6485887,0.01,0.1297607421875,-0.069091796875,0.984130859375,1.77001953125,0.6103515625,-0.48828125,-11.489635186272848,-23.774466732799855,-40.417066271845165
1778892977.6485887,0.01,0.129638671875,-0.0667724609375,0.9827880859375,2.38037109375,1.220703125,-0.3662109375,-11.622156626070026,-23.89002569186157,-40.65538873396847
1778892977.6485887,0.01,0.130859375,-0.0672607421875,0.9842529296875,3.11279296875,1.77001953125,-0.18310546875,-11.786752861532998,-24.007070239299587,-40.89487421362428
1778892977.6485887,0.01,0.1297607421875,-0.068115234375,0.9892578125,3.35693359375,2.0751953125,-0.30517578125,-12.006651166895864,-24.12603725944173,-41.13553975111798
1778892977.6485887,0.01,0.1285400390625,-0.0645751953125,0.9970703125,2.99072265625,2.13623046875,-0.54931640625,-12.25785638229901,-24.247359797187706,-41.37740673640113
1778892977.6485887,0.01,0.12939453125,-0.0595703125,1.0032958984375,2.685546875,1.89208984375,-0.48828125,-12.472539235467748,-24.37101177527654,-41.620498594263445
1778892977.6485887,0.01,0.12939453125,-0.056396484375,1.010498046875,2.13623046875,1.52587890625,-0.42724609375,-12.670478014471735,-24.496726861526238,-41.86483728744746
1778892977.6485887,0.01,0.13037109375,-0.0552978515625,1.0145263671875,1.77001953125,1.0986328125,-0.18310546875,-12.809343027524998,-24.624125966736223,-42.11044155158877
1778892977.6485887,0.01,0.1312255859375,-0.0570068359375,1.0068359375,1.52587890625,0.54931640625,0.30517578125,-12.84535077710671,-24.752399435759383,-42.357324178601246
1778892977.6485887,0.01,0.1292724609375,-0.0589599609375,0.9970703125,1.03759765625,0.30517578125,0.54931640625,-12.879112839339674,-24.881021753841615,-42.60549128454925
1778892977.6485887,0.01,0.12939453125,-0.05810546875,0.9921875,0.9765625,0.54931640625,0.54931640625,-12.94752858063288,-25.010154960941477,-42.85494716812317
1778892977.6485887,0.01,0.130126953125,-0.05517578125,0.9903564453125,1.220703125,1.220703125,0.67138671875,-13.087486424611654,-25.1403300359677,-43.105699593107715
1778892977.6485887,0.01,0.1279296875,-0.055419921875,0.991455078125,1.40380859375,1.89208984375,0.79345703125,-13.311908624703491,-25.272327011214276,-43.35776287834363
1778892977.6485887,0.01,0.124755859375,-0.0576171875,0.9984130859375,1.46484375,2.38037109375,0.79345703125,-13.607911479118371,-25.406926111733387,-43.61115914395837
1778892977.6485887,0.01,0.1221923828125,-0.0595703125,1.008056640625,1.40380859375,2.50244140625,0.8544921875,-13.925412985901623,-25.544592734058487,-43.86591673818733
1778892977.6485887,0.01,0.121337890625,-0.0621337890625,1.0140380859375,1.220703125,2.38037109375,0.91552734375,-14.200940912034788,-25.68522450354817,-44.12206582437536
1778892977.6485887,0.01,0.1207275390625,-0.063720703125,1.017333984375,0.91552734375,1.953125,1.03759765625,-14.428734421043139,-25.82837288021356,-44.37963381129417
1778892977.6485887,0.01,0.118896484375,-0.0679931640625,1.01953125,0.9765625,1.64794921875,0.9765625,-14.622068554116638,-25.97362689508936,-44.638643810170684
1778892977.6485887,0.01,0.1171875,-0.072998046875,1.02099609375,1.3427734375,1.40380859375,0.79345703125,-14.781925812432252,-26.120646866922105,-44.89911517898074
1778892977.6485887,0.01,0.1160888671875,-0.07470703125,1.0211181640625,1.46484375,1.0986328125,0.6103515625,-14.912045361051241,-26.269116722789523,-45.1610639969293
1778892977.6485887,0.01,0.1148681640625,-0.075439453125,1.0162353515625,1.28173828125,0.732421875,0.42724609375,-14.985402317584587,-26.4186039611827,-45.424502600349165
1778892977.6485887,0.01,0.1131591796875,-0.076904296875,1.0091552734375,1.46484375,0.42724609375,0.244140625,-15.017178214346313,-26.568616863842355,-45.68943870447429
1778892977.8228123,0.01,0.11181640625,-0.0787353515625,1.0076904296875,1.46484375,0.6103515625,-0.1220703125,-15.093478164239734,-26.719170145735283,-45.95587763952218
1778892977.8228123,0.01,0.111328125,-0.0791015625,1.0126953125,0.79345703125,1.03759765625,-0.30517578125,-15.250439249555289,-26.870889732804258,-46.22382793891487
1778892977.8228123,0.01,0.1107177734375,-0.079833984375,1.01904296875,0.6103515625,1.03759765625,-0.48828125,-15.417002897037534,-27.024226943537222,-46.49330352229658
1778892977.8228123,0.01,0.108642578125,-0.08056640625,1.02294921875,0.91552734375,0.6103515625,-0.8544921875,-15.538821929078,-27.1790060676678,-46.764319687352604
1778892977.8228123,0.01,0.10888671875,-0.079833984375,1.0235595703125,1.220703125,-0.06103515625,-1.15966796875,-15.571751964520754,-27.334558937135792,-47.03688751237662
1778892977.8228123,0.01,0.1109619140625,-0.0767822265625,1.0206298828125,1.5869140625,-0.54931640625,-1.28173828125,-15.534499204011086,-27.490090192978453,-47.311010758027194
1778892977.8228123,0.01,0.112548828125,-0.0736083984375,1.0150146484375,1.64794921875,-0.8544921875,-1.40380859375,-15.45726996705028,-27.64504903883376,-47.58668645418626
1778892977.8228123,0.01,0.1134033203125,-0.0743408203125,1.0125732421875,1.40380859375,-0.732421875,-1.708984375,-15.40232682149503,-27.799347022776487,-47.863908434494306
1778892977.8228123,0.01,0.1151123046875,-0.0731201171875,1.0137939453125,1.0986328125,-0.54931640625,-2.01416015625,-15.39168238847844,-27.953317068826355,-48.14267175495232
1778892977.8228123,0.01,0.1163330078125,-0.0682373046875,1.0145263671875,0.732421875,-0.54931640625,-2.0751953125,-15.400698380723647,-28.107278972672365,-48.42297473515981
1778892977.8228123,0.01,0.1162109375,-0.0650634765625,1.0166015625,0.48828125,-0.8544921875,-2.13623046875,-15.399338389120569,-28.261279156521585,-48.70481752580578
1778892977.8228123,0.01,0.1168212890625,-0.0628662109375,1.018310546875,0.48828125,-1.15966796875,-2.38037109375,-15.362868941198123,-28.415090193173178,-48.988199372554256
1778892977.8228123,0.01,0.119140625,-0.0589599609375,1.012939453125,0.54931640625,-1.5869140625,-2.3193359375,-15.242345431039958,-28.56811626503437,-49.27311540484529
1778892977.8228123,0.01,0.1217041015625,-0.054931640625,1.0045166015625,0.3662109375,-1.89208984375,-2.0751953125,-15.081398033279097,-28.719734982355966,-49.559554661082245
1778892977.8228123,0.01,0.1229248046875,-0.0521240234375,0.998291015625,0.6103515625,-1.708984375,-1.953125,-14.94768583729643,-28.869880401708844,-49.84750273800257
1778892977.8228123,0.01,0.1239013671875,-0.05029296875,0.99658203125,0.91552734375,-1.03759765625,-1.89208984375,-14.886304112004538,-29.01905035145535,-50.13694739176839
1778892977.8228123,0.01,0.1243896484375,-0.0494384765625,0.9990234375,0.8544921875,-0.3662109375,-1.52587890625,-14.903822515416277,-29.168000984592453,-50.42788264844863
1778892977.8228123,0.01,0.1229248046875,-0.049560546875,1.0010986328125,0.79345703125,-0.18310546875,-1.3427734375,-14.942982712644596,-29.31723501073276,-50.72030882842525
1778892977.8228123,0.01,0.1221923828125,-0.0511474609375,1.0020751953125,0.91552734375,-0.30517578125,-1.15966796875,-14.951631745848276,-29.466708083025225,-51.01422854389404
1778892977.8228123,0.01,0.1234130859375,-0.05224609375,1.00146484375,0.8544921875,-0.3662109375,-1.0986328125,-14.93681982960242,-29.61615034090248,-51.30964283601368
1778892978.0001814,0.01,0.1246337890625,-0.05126953125,0.999755859375,0.6103515625,-0.30517578125,-0.91552734375,-14.935102249410633,-29.765509951297545,-51.60655113747468
1778892978.0001814,0.01,0.1241455078125,-0.0501708984375,1.0001220703125,0.48828125,-0.1220703125,-0.732421875,-14.974687134458204,-29.91505889821689,-51.90495398172225
1778892978.0001814,0.01,0.123779296875,-0.052001953125,1.0042724609375,0.732421875,0.06103515625,-0.67138671875,-15.032109838044931,-30.06509288307941,-52.20485474062873
1778892978.0001814,0.01,0.1240234375,-0.054443359375,1.007080078125,1.03759765625,0.1220703125,-0.48828125,-15.07114274606732,-30.21560914599997,-52.50625825077413
1778892978.0001814,0.01,0.122314453125,-0.0552978515625,1.0045166015625,1.0986328125,-0.1220703125,-0.18310546875,-15.07430677205594,-30.366336393590586,-52.80916797847208
1778892978.0001814,0.01,0.120849609375,-0.0562744140625,1.0028076171875,1.0986328125,-0.244140625,-0.244140625,-15.070947540297194,-30.517062665152352,-53.113584973765796
1778892978.0001814,0.01,0.12060546875,-0.0579833984375,1.0030517578125,1.220703125,-0.06103515625,-0.42724609375,-15.079532956598067,-30.667815067636827,-53.41950936242974
1778892978.0001814,0.01,0.1204833984375,-0.0582275390625,1.0028076171875,0.9765625,0.06103515625,-0.30517578125,-15.106897924551568,-30.818747222042575,-53.72694217387814
1778892978.0001814,0.01,0.12060546875,-0.0570068359375,1.0006103515625,0.79345703125,0.1220703125,-0.1220703125,-15.136970956742967,-30.96996656644905,-54.035885742820604
1778892978.0001814,0.01,0.1207275390625,-0.05712890625,0.9970703125,1.28173828125,0.30517578125,0.0,-15.15232486823906,-31.12141304557396,-54.34634264088072
1778892978.0001814,0.01,0.119384765625,-0.061279296875,0.9993896484375,1.5869140625,0.67138671875,0.0,-15.212713597597446,-31.273238237903143,-54.65831589729811
1778892978.0001814,0.01,0.118408203125,-0.0635986328125,1.00537109375,1.28173828125,1.03759765625,-0.1220703125,-15.338278687681768,-31.42599319932954,-54.971812054484275
1778892978.0001814,0.01,0.116455078125,-0.061767578125,1.0135498046875,0.732421875,0.91552734375,-0.18310546875,-15.509608869838676,-31.580232637117142,-55.286843183666505
1778892978.0001814,0.01,0.1131591796875,-0.061279296875,1.023681640625,0.30517578125,0.54931640625,-0.3662109375,-15.67995470242305,-31.73618045497845,-55.603425249126985
1778892978.0001814,0.01,0.1126708984375,-0.061767578125,1.028076171875,0.1220703125,-0.06103515625,-0.48828125,-15.753121619872612,-31.893345836589926,-55.921572880584826
1778892978.0001814,0.01,0.1141357421875,-0.0609130859375,1.0267333984375,-0.06103515625,-0.67138671875,-0.3662109375,-15.743869322174238,-32.05083079130016,-56.24129376372428
1778892978.0001814,0.01,0.114501953125,-0.0604248046875,1.0238037109375,0.0,-1.03759765625,-0.42724609375,-15.698580729222861,-32.20804304155714,-56.562588132888564
1778892978.0001814,0.01,0.114501953125,-0.0633544921875,1.018798828125,0.48828125,-1.15966796875,-0.3662109375,-15.602494747157802,-32.364548418939044,-56.88545109019105
1778892978.0001814,0.01,0.1143798828125,-0.0673828125,1.0120849609375,0.91552734375,-1.220703125,-0.54931640625,-15.473933118468858,-32.51993055826718,-57.209873485077075
1778892978.0001814,0.01,0.1136474609375,-0.068359375,1.0059814453125,0.67138671875,-1.0986328125,-0.79345703125,-15.383335899571374,-32.674216903357376,-57.5358442223852
1778892978.163497,0.01,0.113037109375,-0.0677490234375,1.0035400390625,0.1220703125,-0.79345703125,-0.91552734375,-15.3625314822741,-32.827946240266606,-57.86335503810332
1778892978.163497,0.01,0.1131591796875,-0.0665283203125,1.0057373046875,-0.1220703125,-0.42724609375,-1.0986328125,-15.405228320305866,-32.98178503927951,-58.19240369450105
1778892978.163497,0.01,0.1131591796875,-0.0634765625,1.0115966796875,0.0,-0.3662109375,-1.15966796875,-15.481753378776727,-33.13621994777492,-58.52299371943632
1778892978.163497,0.01,0.112548828125,-0.06201171875,1.0211181640625,0.18310546875,-0.54931640625,-1.28173828125,-15.559246629319354,-33.2914249478154,-58.85513194391427
1778892978.163497,0.01,0.11328125,-0.0623779296875,1.027099609375,0.48828125,-1.15966796875,-1.40380859375,-15.54254424437774,-33.446933902183886,-59.18882373816427
1778892978.163497,0.01,0.115966796875,-0.0616455078125,1.0223388671875,0.1220703125,-2.01416015625,-1.3427734375,-15.396424191084009,-33.60162874436119,-59.52406655139699
1778892978.163497,0.01,0.1190185546875,-0.0595703125,1.012451171875,-0.42724609375,-2.44140625,-1.220703125,-15.205458385790346,-33.754638157245566,-59.860847885905024
1778892978.163497,0.01,0.12060546875,-0.0574951171875,1.0045166015625,-0.48828125,-2.197265625,-1.15966796875,-15.055209178052618,-33.90594149506478,-60.19915078416658
1778892978.163497,0.01,0.12109375,-0.0584716796875,1.0009765625,-0.3662109375,-1.64794921875,-1.15966796875,-14.963736312129774,-34.056036222515694,-60.53896067275448
1778892978.163497,0.01,0.1212158203125,-0.059326171875,1.00244140625,-0.42724609375,-1.220703125,-1.220703125,-14.940580061117004,-34.205557804381925,-60.880268642888964
1778892978.3361924,0.01,0.1217041015625,-0.0570068359375,1.004150390625,-0.48828125,-1.03759765625,-1.0986328125,-14.945773352271683,-34.35498957144887,-61.223071379768115
1778892978.3361924,0.01,0.1229248046875,-0.0552978515625,0.999755859375,-0.3662109375,-1.28173828125,-0.91552734375,-14.883398967345085,-34.504135433046955,-61.5673670047906
1778892978.3361924,0.01,0.1243896484375,-0.0570068359375,0.9921875,-0.1220703125,-1.28173828125,-0.91552734375,-14.778950953457862,-34.65244718265097,-61.913149917869085
1778892978.3361924,0.01,0.124267578125,-0.0596923828125,0.99072265625,-0.1220703125,-0.6103515625,-0.9765625,-14.769991874354318,-34.800191896790025,-62.26041311326629
1778892978.3361924,0.01,0.1229248046875,-0.0615234375,0.9976806640625,-0.30517578125,0.06103515625,-1.03759765625,-14.88120188518295,-34.94844786558771,-62.60915631207818
1778892978.3361924,0.01,0.1219482421875,-0.0631103515625,1.0057373046875,-0.30517578125,0.06103515625,-0.9765625,-14.998589791497482,-35.09784682397111,-62.95938778552597
1778892978.3361924,0.01,0.1202392578125,-0.0640869140625,1.01025390625,-0.06103515625,-0.48828125,-1.03759765625,-15.05173726492867,-35.24809845925324,-63.31111751194209
1778892978.3361924,0.01,0.1197509765625,-0.0640869140625,1.009765625,0.18310546875,-1.28173828125,-1.0986328125,-15.000967941754913,-35.39836198528666,-63.664349814164794
1778892978.3361924,0.01,0.12109375,-0.0638427734375,1.0025634765625,0.244140625,-1.8310546875,-1.03759765625,-14.8537276248615,-35.54763546311975,-64.01907980140683
1778892978.3361924,0.01,0.121826171875,-0.0623779296875,0.9940185546875,0.48828125,-1.708984375,-0.91552734375,-14.70916078243124,-35.69544990515621,-64.3752952282482
1778892978.4169018,0.01,0.1229248046875,-0.0628662109375,0.989501953125,0.79345703125,-1.0986328125,-0.79345703125,-14.617108242230897,-35.84208125027952,-64.73298288402539
1778892978.4169018,0.01,0.1226806640625,-0.06689453125,0.9918212890625,0.67138671875,-0.244140625,-0.732421875,-14.63133718367363,-35.98832347740904,-65.09213490766383
1778892978.4169018,0.01,0.1209716796875,-0.0684814453125,0.998291015625,0.42724609375,0.244140625,-0.732421875,-14.734804116086096,-36.13515418390784,-65.45275229597041
1778892978.4169018,0.01,0.1209716796875,-0.0654296875,1.00146484375,0.54931640625,0.18310546875,-0.732421875,-14.816001195736547,-36.28290821046695,-65.81484260794228
1778892978.4169018,0.01,0.1201171875,-0.060302734375,1.0020751953125,1.0986328125,0.0,-0.6103515625,-14.862902576912468,-36.43130272933019,-66.17841366264126
1778892978.4169018,0.01,0.1180419921875,-0.0599365234375,1.0101318359375,1.40380859375,-0.1220703125,-0.8544921875,-14.924768441320982,-36.58024108442136,-66.54347138171002
1778892978.4169018,0.01,0.118408203125,-0.061279296875,1.0198974609375,0.91552734375,-0.30517578125,-1.0986328125,-14.976418814932074,-36.729747020702625,-66.91002132223564
1778892978.4169018,0.01,0.1201171875,-0.058349609375,1.0181884765625,-0.06103515625,-0.79345703125,-0.79345703125,-14.963028558867567,-36.87944425757162,-67.278067278627
1778892978.4169018,0.01,0.121826171875,-0.0552978515625,1.00927734375,-0.30517578125,-1.220703125,-0.6103515625,-14.88141913283323,-37.02866649603013,-67.64760783239501
1778892978.4169018,0.01,0.123046875,-0.0555419921875,1.00146484375,0.6103515625,-0.9765625,-0.48828125,-14.784687857466952,-37.176997030981624,-68.01863615003008
1778892978.4169018,0.01,0.1224365234375,-0.0584716796875,0.999755859375,1.28173828125,-0.48828125,-0.3662109375,-14.741094166146379,-37.32462594109969,-68.39114426489049
1778892978.4169018,0.01,0.1209716796875,-0.061279296875,1.002197265625,0.9765625,-0.244140625,-0.42724609375,-14.756981463523289,-37.47211631924804,-68.76512797619222
1778892978.4169018,0.01,0.119873046875,-0.0606689453125,1.00439453125,0.67138671875,-0.30517578125,-0.42724609375,-14.788185089748561,-37.6198421520144,-69.14058776854853
1778892978.4169018,0.01,0.1192626953125,-0.056884765625,1.004150390625,0.6103515625,-0.30517578125,-0.42724609375,-14.81635421687523,-37.76786484854752,-69.51752630355134
1778892978.4169018,0.01,0.1192626953125,-0.054931640625,1.0064697265625,0.67138671875,-0.18310546875,-0.42724609375,-14.855970221935475,-37.91622647074157,-69.89594676014778
1778892978.4169018,0.01,0.1197509765625,-0.0587158203125,1.0133056640625,0.244140625,-0.06103515625,-0.3662109375,-14.921046151836403,-38.06511155261043,-70.27585345026453
1778892978.4169018,0.01,0.1201171875,-0.063720703125,1.018310546875,-0.6103515625,-0.244140625,-0.3662109375,-14.987249757185438,-38.21465303215554,-70.65725227318836
1778892978.4169018,0.01,0.1207275390625,-0.0618896484375,1.0179443359375,-0.9765625,-0.67138671875,-0.42724609375,-15.024874168389427,-38.36471365178341,-71.04014910660806
1778892978.4169018,0.01,0.1217041015625,-0.05615234375,1.01416015625,-0.6103515625,-0.9765625,-0.42724609375,-15.015972156086093,-38.514917883405786,-71.424547264284
1778892978.4169018,0.01,0.1221923828125,-0.0557861328125,1.0106201171875,-0.06103515625,-0.9765625,-0.30517578125,-14.973134382065847,-38.664863416096544,-71.81044617078152
1778892978.587637,0.01,0.1221923828125,-0.0606689453125,1.0057373046875,0.244140625,-0.9765625,-0.18310546875,-14.896647812987881,-38.814212327071814,-72.19784154949735
1778892978.587637,0.01,0.12158203125,-0.0638427734375,0.9991455078125,0.30517578125,-0.79345703125,-0.1220703125,-14.832397738995649,-38.96285755483173,-72.58672689890687
1778892978.587637,0.01,0.1199951171875,-0.0645751953125,0.9986572265625,0.3662109375,-0.3662109375,-0.30517578125,-14.85152008704455,-39.11127714396193,-72.97709757240084
1778892978.587637,0.01,0.1185302734375,-0.0660400390625,1.0067138671875,0.30517578125,0.06103515625,-0.3662109375,-14.95427585429573,-39.26030612366863,-73.36895548873899
1778892978.587637,0.01,0.1170654296875,-0.0667724609375,1.0133056640625,0.1220703125,0.0,-0.48828125,-15.05213061208254,-39.41033815600052,-73.76230871013733
1778892978.587637,0.01,0.1165771484375,-0.0662841796875,1.01318359375,0.06103515625,-0.67138671875,-0.6103515625,-15.056495838694754,-39.56088128825441,-74.15716480735861
1778892978.587637,0.01,0.1182861328125,-0.0662841796875,1.0072021484375,0.06103515625,-1.15966796875,-0.67138671875,-14.970679729874611,-39.71101716609726,-74.55352429963037
1778892978.587637,0.01,0.1190185546875,-0.06640625,0.999755859375,0.18310546875,-0.9765625,-0.6103515625,-14.892427222857062,-39.860332700860916,-74.95138104896516
1778892978.587637,0.01,0.1195068359375,-0.066650390625,0.99853515625,0.18310546875,-0.42724609375,-0.732421875,-14.895932449175108,-40.00927449922108,-75.35072908496556
1778892978.587637,0.01,0.1197509765625,-0.0670166015625,1.00390625,0.48828125,-0.06103515625,-0.79345703125,-14.959873958998527,-40.158553531261944,-75.75156822511798
1778892978.587637,0.01,0.11767578125,-0.068359375,1.0091552734375,0.79345703125,-0.1220703125,-0.8544921875,-15.020861229099886,-40.30845720720244,-76.1539032788103
1778892978.587637,0.01,0.118408203125,-0.0706787109375,1.0125732421875,0.48828125,-0.42724609375,-0.91552734375,-15.034801036994573,-40.45873551853291,-76.55773924243898
1778892978.587637,0.01,0.1201171875,-0.0709228515625,1.0125732421875,0.06103515625,-0.8544921875,-0.91552734375,-15.009249270455902,-40.60895577007017,-76.963077698882
1778892978.587637,0.01,0.1201171875,-0.067138671875,1.0079345703125,0.0,-1.03759765625,-1.0986328125,-14.967806651831697,-40.75884104968161,-77.36991668298076
1778892978.587637,0.01,0.1204833984375,-0.06298828125,1.003662109375,0.42724609375,-0.91552734375,-1.15966796875,-14.922931986057874,-40.90829474287106,-77.77825236194352
1778892978.587637,0.01,0.1212158203125,-0.0616455078125,1.0064697265625,0.42724609375,-0.732421875,-1.28173828125,-14.92369275779144,-41.057527866590306,-78.18808147499082
1778892978.587637,0.01,0.12158203125,-0.0625,1.0091552734375,0.18310546875,-0.8544921875,-1.0986328125,-14.91756867080166,-41.206734173733274,-78.59940278519244
1778892978.587637,0.01,0.120849609375,-0.0606689453125,1.003662109375,-0.06103515625,-1.15966796875,-0.9765625,-14.86264899938599,-41.35563526208421,-79.01221463237152
1778892978.587637,0.01,0.1209716796875,-0.0560302734375,0.99658203125,0.30517578125,-1.03759765625,-1.03759765625,-14.798746193999994,-41.503942238051145,-79.4265125198722
1778892978.587637,0.01,0.1226806640625,-0.0537109375,0.995849609375,0.8544921875,-0.54931640625,-0.91552734375,-14.774179568452038,-41.6518068668634,-79.84229126539678
1778892978.7603042,0.01,0.1241455078125,-0.0565185546875,1.00048828125,0.8544921875,-0.30517578125,-0.67138671875,-14.785516451500198,-41.79960534696316,-80.25954832646592
1778892978.7603042,0.01,0.1231689453125,-0.0611572265625,1.0013427734375,0.18310546875,-0.42724609375,-0.54931640625,-14.798155161990818,-41.94752370503062,-80.67828397172589
1778892978.7603042,0.01,0.122802734375,-0.0596923828125,0.998291015625,-0.18310546875,-0.42724609375,-0.79345703125,-14.815355658954182,-42.09559125913535,-81.09849954654672
1778892978.7603042,0.01,0.1251220703125,-0.0526123046875,0.9970703125,0.1220703125,-0.06103515625,-0.67138671875,-14.860310710897217,-42.243969590984605,-81.52019735079732
1778892978.7603042,0.01,0.124755859375,-0.0513916015625,1.000244140625,0.42724609375,0.30517578125,-0.30517578125,-14.949349172460161,-42.39301789040139,-81.94338228820425
1778892978.7603042,0.01,0.1221923828125,-0.05859375,1.006103515625,0.42724609375,0.3662109375,-0.30517578125,-15.04774158302044,-42.54300334417879,-82.36806239437715
1778892978.7603042,0.01,0.12109375,-0.062255859375,1.0091552734375,0.30517578125,0.0,-0.30517578125,-15.106512770967958,-42.69377461594873,-82.79424628417779
1778892978.7603042,0.01,0.121826171875,-0.05908203125,1.0069580078125,0.30517578125,-0.3662109375,-0.244140625,-15.11412707496658,-42.84487781517841,-83.22193954633343
1778892978.7603042,0.01,0.123046875,-0.056640625,1.0028076171875,0.67138671875,-0.30517578125,-0.244140625,-15.096361252982433,-42.99593025681815,-83.65114358669341
