timestamp,ax,ay,az,gx,gy,gz
1777642747.1645133,-0.3065185546875,-0.6566162109375,-0.6766357421875,13.36669921875,-2.01416015625,8.544921875
1777642747.1645133,-0.2918701171875,-0.6533203125,-0.666015625,12.75634765625,-0.18310546875,7.50732421875
1777642747.1645133,-0.2899169921875,-0.6485595703125,-0.6531982421875,11.53564453125,3.5400390625,6.2255859375
1777642747.1645133,-0.2864990234375,-0.6441650390625,-0.643798828125,10.31494140625,7.080078125,5.31005859375
1777642747.1645133,-0.2586669921875,-0.630126953125,-0.6505126953125,9.521484375,8.4228515625,5.2490234375
1777642747.1645133,-0.239990234375,-0.621826171875,-0.6552734375,10.19287109375,6.4697265625,6.53076171875
1777642747.1645133,-0.2496337890625,-0.626220703125,-0.6341552734375,7.99560546875,4.94384765625,8.056640625
1777642747.1645133,-0.2738037109375,-0.632568359375,-0.6239013671875,-1.03759765625,5.4931640625,6.7138671875
1777642747.1645133,-0.298583984375,-0.6480712890625,-0.64794921875,-3.662109375,11.16943359375,3.23486328125
1777642747.1645133,-0.3118896484375,-0.674072265625,-0.682373046875,-3.84521484375,17.76123046875,-1.03759765625
1777642747.1645133,-0.29296875,-0.68994140625,-0.7100830078125,-3.662109375,23.49853515625,-3.7841796875
1777642747.1645133,-0.2667236328125,-0.6976318359375,-0.7337646484375,-2.197265625,28.99169921875,-5.31005859375
1777642747.1655114,-0.2598876953125,-0.712646484375,-0.7559814453125,0.18310546875,26.7333984375,-5.37109375
1777642747.1655114,-0.24951171875,-0.7073974609375,-0.7706298828125,0.8544921875,19.53125,-3.47900390625
1777642747.1655114,-0.2431640625,-0.6861572265625,-0.766845703125,3.96728515625,15.869140625,-0.42724609375
1777642747.1655114,-0.2445068359375,-0.6746826171875,-0.7318115234375,5.4931640625,13.0615234375,1.77001953125
1777642747.1655114,-0.2523193359375,-0.6627197265625,-0.69677734375,3.5400390625,8.4228515625,2.44140625
1777642747.1655114,-0.2591552734375,-0.6514892578125,-0.6802978515625,1.0986328125,3.84521484375,2.8076171875
1777642747.1655114,-0.2578125,-0.6466064453125,-0.67578125,-1.3427734375,1.220703125,2.9296875
1777642747.1655114,-0.2601318359375,-0.649169921875,-0.6800537109375,-3.0517578125,-0.18310546875,2.86865234375
1777642747.1655114,-0.2666015625,-0.652099609375,-0.6868896484375,-4.21142578125,0.1220703125,2.50244140625
1777642747.1655114,-0.2705078125,-0.657470703125,-0.6875,-4.08935546875,1.953125,2.13623046875
1777642747.1655114,-0.2720947265625,-0.66259765625,-0.6875,-5.126953125,1.220703125,1.220703125
1777642747.1655114,-0.27880859375,-0.6629638671875,-0.6943359375,-4.94384765625,0.67138671875,1.15966796875
1777642747.1655114,-0.2802734375,-0.6612548828125,-0.69677734375,-4.33349609375,0.42724609375,1.28173828125
1777642747.1655114,-0.2777099609375,-0.6573486328125,-0.6982421875,-4.21142578125,1.77001953125,0.67138671875
1777642747.1655114,-0.2725830078125,-0.655029296875,-0.69921875,-5.18798828125,4.08935546875,-0.9765625
1777642747.1655114,-0.2501220703125,-0.6414794921875,-0.6883544921875,-7.14111328125,8.056640625,-3.2958984375
1777642747.1655114,-0.230712890625,-0.6240234375,-0.685791015625,-10.31494140625,9.70458984375,-4.7607421875
1777642747.1655114,-0.2337646484375,-0.630859375,-0.6964111328125,-11.8408203125,9.21630859375,-4.150390625
1777642747.1655114,-0.24365234375,-0.650634765625,-0.704345703125,-13.00048828125,7.080078125,-3.23486328125
1777642747.1655114,-0.2513427734375,-0.658935546875,-0.706787109375,-12.39013671875,7.14111328125,-2.9296875
1777642747.1655114,-0.2542724609375,-0.6558837890625,-0.698486328125,-11.41357421875,10.80322265625,-4.69970703125
1777642747.1655114,-0.259765625,-0.6600341796875,-0.7000732421875,-10.009765625,14.58740234375,-7.75146484375
1777642747.1655114,-0.2608642578125,-0.6644287109375,-0.7138671875,-7.87353515625,15.380859375,-8.7890625
1777642747.1655114,-0.244873046875,-0.65185546875,-0.7176513671875,-7.01904296875,13.48876953125,-8.11767578125
1777642747.1655114,-0.232177734375,-0.6412353515625,-0.717041015625,-6.4697265625,9.521484375,-5.9814453125
1777642747.1655114,-0.228759765625,-0.6419677734375,-0.7198486328125,-6.591796875,4.638671875,-3.2958984375
1777642747.1655114,-0.229248046875,-0.6468505859375,-0.7291259765625,-6.77490234375,1.40380859375,-1.46484375
1777642747.1655114,-0.23046875,-0.647216796875,-0.7352294921875,-6.591796875,2.74658203125,-1.64794921875
1777642747.1655114,-0.2293701171875,-0.6427001953125,-0.737060546875,-7.14111328125,6.103515625,-3.60107421875
1777642747.1655114,-0.228271484375,-0.6431884765625,-0.745361328125,-6.9580078125,9.33837890625,-4.94384765625
1777642747.1655114,-0.22265625,-0.643310546875,-0.7467041015625,-5.55419921875,10.6201171875,-4.33349609375
1777642747.1655114,-0.209228515625,-0.634521484375,-0.7384033203125,-4.69970703125,11.3525390625,-4.08935546875
1777642747.1655114,-0.21728515625,-0.63623046875,-0.7294921875,-5.67626953125,11.71875,-5.615234375
1777642747.1655114,-0.232666015625,-0.6451416015625,-0.73388671875,-7.6904296875,9.46044921875,-6.7138671875
1777642747.1655114,-0.222900390625,-0.6424560546875,-0.7509765625,-5.67626953125,7.62939453125,-5.43212890625
1777642747.1655114,-0.2154541015625,-0.6419677734375,-0.76025390625,-2.38037109375,5.2490234375,-2.5634765625
1777642747.1655114,-0.2177734375,-0.6463623046875,-0.755615234375,-0.54931640625,0.54931640625,0.1220703125
1777642747.1655114,-0.224609375,-0.647705078125,-0.7491455078125,0.1220703125,-1.953125,0.67138671875
1777642747.1655114,-0.23291015625,-0.646240234375,-0.7413330078125,0.732421875,-0.8544921875,0.1220703125
1777642747.1655114,-0.2200927734375,-0.6317138671875,-0.73046875,0.30517578125,0.48828125,-0.1220703125
1777642747.1655114,-0.203857421875,-0.616943359375,-0.7269287109375,0.18310546875,1.3427734375,0.732421875
1777642747.1655114,-0.2052001953125,-0.6287841796875,-0.7237548828125,0.9765625,-0.18310546875,2.25830078125
1777642747.1655114,-0.21240234375,-0.6368408203125,-0.7142333984375,-0.6103515625,-2.99072265625,2.01416015625
1777642747.1655114,-0.2236328125,-0.6378173828125,-0.7122802734375,-0.79345703125,-3.0517578125,1.220703125
1777642747.1655114,-0.2296142578125,-0.64404296875,-0.7154541015625,-0.79345703125,-2.5634765625,0.244140625
1777642747.1655114,-0.2291259765625,-0.6397705078125,-0.72119140625,-1.0986328125,-2.3193359375,-0.54931640625
1777642747.1655114,-0.2325439453125,-0.64208984375,-0.7310791015625,-1.40380859375,-1.28173828125,-1.15966796875
1777642747.1655114,-0.236083984375,-0.6484375,-0.75,-1.64794921875,1.52587890625,-2.38037109375
1777642747.1655114,-0.2254638671875,-0.656005859375,-0.782958984375,0.54931640625,6.89697265625,-2.5634765625
1777642747.1655114,-0.2091064453125,-0.6640625,-0.8023681640625,3.72314453125,7.8125,-1.220703125
1777642747.1655114,-0.2081298828125,-0.6585693359375,-0.79443359375,7.14111328125,3.23486328125,1.3427734375
1777642747.1655114,-0.2093505859375,-0.641845703125,-0.7689208984375,11.23046875,-3.662109375,5.2490234375
1777642747.1655114,-0.1953125,-0.6185302734375,-0.7423095703125,16.7236328125,-8.6669921875,8.72802734375
1777642747.1655114,-0.1943359375,-0.615966796875,-0.712158203125,15.13671875,-10.68115234375,9.94873046875
1777642747.1655114,-0.215087890625,-0.6348876953125,-0.684326171875,7.99560546875,-13.00048828125,9.46044921875
1777642747.1655114,-0.234619140625,-0.6422119140625,-0.6826171875,4.45556640625,-11.1083984375,7.14111328125
1777642747.1655114,-0.2470703125,-0.6446533203125,-0.7005615234375,2.86865234375,-3.60107421875,4.0283203125
1777642747.1655114,-0.2418212890625,-0.6376953125,-0.7237548828125,1.708984375,5.859375,0.79345703125
1777642747.6297286,-0.2193603515625,-0.634521484375,-0.736083984375,2.01416015625,16.4794921875,-1.64794921875
1777642747.6297286,-0.2059326171875,-0.636962890625,-0.727783203125,0.06103515625,23.4375,-5.126953125
1777642747.6297286,-0.20947265625,-0.629638671875,-0.71484375,-1.52587890625,25.2685546875,-6.591796875
1777642747.6297286,-0.2117919921875,-0.6361083984375,-0.703369140625,-2.25830078125,23.62060546875,-6.89697265625
1777642747.6297286,-0.215087890625,-0.6407470703125,-0.695068359375,-3.2958984375,19.59228515625,-7.75146484375
1777642747.6297286,-0.21240234375,-0.634765625,-0.6951904296875,-2.685546875,14.83154296875,-6.65283203125
1777642747.6297286,-0.19384765625,-0.6322021484375,-0.697265625,-1.46484375,7.50732421875,-3.90625
1777642747.6297286,-0.180908203125,-0.633056640625,-0.710205078125,-2.0751953125,-3.2958984375,-0.732421875
1777642747.6297286,-0.1917724609375,-0.638671875,-0.729248046875,-2.13623046875,-10.986328125,2.50244140625
1777642747.6297286,-0.213134765625,-0.6474609375,-0.739990234375,-0.9765625,-11.5966796875,3.72314453125
1777642747.6297286,-0.2232666015625,-0.6492919921875,-0.744140625,-0.3662109375,-8.544921875,3.41796875
1777642747.6297286,-0.224609375,-0.65234375,-0.744140625,-0.48828125,-4.33349609375,1.64794921875
1777642747.6297286,-0.224365234375,-0.6533203125,-0.753662109375,-2.50244140625,-0.06103515625,-1.52587890625
1777642747.6297286,-0.21923828125,-0.6470947265625,-0.765380859375,-1.708984375,5.859375,-3.2958984375
1777642747.6297286,-0.2109375,-0.6478271484375,-0.767333984375,-1.52587890625,8.4228515625,-4.21142578125
1777642747.6297286,-0.2073974609375,-0.65283203125,-0.76806640625,-0.6103515625,8.544921875,-4.21142578125
1777642747.6297286,-0.204833984375,-0.6522216796875,-0.7591552734375,1.708984375,7.01904296875,-3.35693359375
1777642747.6297286,-0.196044921875,-0.64697265625,-0.7447509765625,3.5400390625,4.45556640625,-2.197265625
1777642747.6297286,-0.1900634765625,-0.6383056640625,-0.7294921875,4.33349609375,1.953125,-0.6103515625
1777642747.6297286,-0.1856689453125,-0.6243896484375,-0.705322265625,3.23486328125,0.30517578125,0.30517578125
1777642747.6297286,-0.185546875,-0.6181640625,-0.6864013671875,1.03759765625,-0.91552734375,0.48828125
1777642747.6307268,-0.19384765625,-0.6190185546875,-0.686767578125,-1.220703125,-2.50244140625,0.9765625
1777642747.6307268,-0.2078857421875,-0.6260986328125,-0.6988525390625,-1.77001953125,-3.173828125,1.708984375
1777642747.6307268,-0.219482421875,-0.6368408203125,-0.7119140625,-1.220703125,-4.2724609375,2.50244140625
1777642747.6307268,-0.2216796875,-0.6385498046875,-0.7247314453125,-0.1220703125,-5.4931640625,2.86865234375
1777642747.6307268,-0.218994140625,-0.6402587890625,-0.7464599609375,0.9765625,-5.615234375,3.662109375
1777642747.6307268,-0.218505859375,-0.6556396484375,-0.761962890625,3.23486328125,-4.21142578125,4.45556640625
1777642747.6307268,-0.2196044921875,-0.668212890625,-0.7559814453125,5.0048828125,-2.8076171875,4.2724609375
1777642747.6307268,-0.2119140625,-0.6632080078125,-0.7398681640625,5.615234375,-2.25830078125,3.72314453125
1777642747.6307268,-0.2071533203125,-0.650390625,-0.728515625,4.5166015625,-2.13623046875,2.5634765625
1777642747.6307268,-0.21142578125,-0.644775390625,-0.7266845703125,2.86865234375,-1.89208984375,1.8310546875
1777642747.6307268,-0.215087890625,-0.6527099609375,-0.7293701171875,1.40380859375,-0.9765625,0.9765625
1777642747.6307268,-0.2220458984375,-0.658935546875,-0.7271728515625,0.6103515625,1.64794921875,-0.30517578125
1777642747.6307268,-0.216796875,-0.656005859375,-0.718994140625,0.42724609375,2.74658203125,-1.03759765625
1777642747.6307268,-0.207763671875,-0.6539306640625,-0.7122802734375,0.54931640625,0.30517578125,-0.30517578125
1777642747.6307268,-0.2059326171875,-0.65478515625,-0.7110595703125,0.54931640625,-5.0048828125,1.40380859375
1777642747.6307268,-0.1998291015625,-0.6527099609375,-0.712890625,0.91552734375,-9.1552734375,3.47900390625
1777642747.6307268,-0.2099609375,-0.6531982421875,-0.7039794921875,1.64794921875,-10.07080078125,4.638671875
1777642747.6307268,-0.218994140625,-0.6422119140625,-0.72021484375,-0.6103515625,-13.48876953125,5.18798828125
1777642747.6307268,-0.2196044921875,-0.6256103515625,-0.7484130859375,0.18310546875,-11.71875,5.9814453125
1777642747.7992926,-0.2294921875,-0.6351318359375,-0.7330322265625,1.89208984375,-7.080078125,5.37109375
1777642747.7992926,-0.2310791015625,-0.636474609375,-0.7232666015625,-0.1220703125,-6.34765625,3.72314453125
1777642747.7992926,-0.224365234375,-0.6356201171875,-0.7406005859375,0.48828125,-2.62451171875,3.0517578125
1777642747.7992926,-0.227783203125,-0.65185546875,-0.748291015625,0.732421875,2.74658203125,1.64794921875
1777642747.7992926,-0.2362060546875,-0.6580810546875,-0.735107421875,1.220703125,6.4697265625,0.0
1777642747.7992926,-0.219482421875,-0.651123046875,-0.721923828125,1.3427734375,3.72314453125,-0.79345703125
1777642747.7992926,-0.201904296875,-0.63623046875,-0.7232666015625,1.708984375,-2.25830078125,0.8544921875
1777642747.7992926,-0.20703125,-0.6336669921875,-0.720703125,2.86865234375,-7.26318359375,3.72314453125
1777642747.7992926,-0.181396484375,-0.6385498046875,-0.718505859375,1.8310546875,-12.02392578125,4.82177734375
1777642747.7992926,-0.171142578125,-0.6209716796875,-0.7164306640625,1.03759765625,-15.9912109375,6.28662109375
1777642747.7992926,-0.1978759765625,-0.6220703125,-0.7076416015625,1.3427734375,-14.95361328125,5.43212890625
1777642747.7992926,-0.2606201171875,-0.653076171875,-0.7122802734375,0.30517578125,-14.22119140625,3.72314453125
1777642747.7992926,-0.285888671875,-0.66748046875,-0.7445068359375,0.42724609375,-12.20703125,2.9296875
1777642747.7992926,-0.2593994140625,-0.6656494140625,-0.7711181640625,3.96728515625,-7.4462890625,1.5869140625
1777642747.7992926,-0.2537841796875,-0.6595458984375,-0.76513671875,5.67626953125,-3.72314453125,1.40380859375
1777642747.7992926,-0.240478515625,-0.650634765625,-0.7467041015625,7.62939453125,-3.35693359375,2.44140625
1777642747.7992926,-0.236083984375,-0.641357421875,-0.735595703125,7.9345703125,-5.55419921875,4.57763671875
1777642747.7992926,-0.2435302734375,-0.641357421875,-0.7225341796875,8.7890625,-7.4462890625,6.28662109375
1777642747.7992926,-0.25341796875,-0.6478271484375,-0.7044677734375,8.6669921875,-9.8876953125,7.568359375
1777642747.7992926,-0.2540283203125,-0.649169921875,-0.696533203125,8.72802734375,-12.26806640625,8.544921875
1777642747.9854233,-0.25146484375,-0.6417236328125,-0.6976318359375,7.87353515625,-12.26806640625,8.85009765625
1777642747.9854233,-0.253173828125,-0.641845703125,-0.7008056640625,6.40869140625,-8.97216796875,7.26318359375
1777642747.9854233,-0.2386474609375,-0.6417236328125,-0.7083740234375,5.126953125,-2.74658203125,5.43212890625
1777642747.9854233,-0.23876953125,-0.6431884765625,-0.7027587890625,4.94384765625,5.79833984375,3.84521484375
1777642747.9854233,-0.2481689453125,-0.6473388671875,-0.690673828125,2.5634765625,8.1787109375,2.5634765625
1777642747.9854233,-0.251953125,-0.6466064453125,-0.6800537109375,1.708984375,6.2255859375,2.0751953125
1777642747.9854233,-0.2640380859375,-0.6514892578125,-0.6715087890625,0.1220703125,3.2958984375,1.708984375
1777642747.9854233,-0.2647705078125,-0.65869140625,-0.683837890625,-0.30517578125,0.06103515625,1.40380859375
1777642747.9854233,-0.2650146484375,-0.6651611328125,-0.7027587890625,-0.18310546875,-2.44140625,1.77001953125
1777642747.9854233,-0.2686767578125,-0.669677734375,-0.7054443359375,0.8544921875,-2.62451171875,2.3193359375
1777642747.9854233,-0.265869140625,-0.658447265625,-0.7081298828125,0.91552734375,-2.99072265625,2.197265625
1777642747.9854233,-0.254150390625,-0.642333984375,-0.7120361328125,2.0751953125,-2.25830078125,3.173828125
1777642747.9854233,-0.2467041015625,-0.6317138671875,-0.716064453125,0.91552734375,-1.5869140625,3.5400390625
1777642747.9854233,-0.2471923828125,-0.6314697265625,-0.7254638671875,1.64794921875,1.708984375,3.90625
1777642747.9854233,-0.25341796875,-0.6505126953125,-0.7196044921875,1.708984375,5.43212890625,2.62451171875
1777642747.9854233,-0.26513671875,-0.6651611328125,-0.7086181640625,0.732421875,7.080078125,1.5869140625
1777642747.9854233,-0.270751953125,-0.6710205078125,-0.706787109375,0.48828125,4.33349609375,2.38037109375
1777642747.9854233,-0.2689208984375,-0.668212890625,-0.7069091796875,0.79345703125,-2.8076171875,3.2958984375
1777642747.9854233,-0.2694091796875,-0.652587890625,-0.7071533203125,0.42724609375,-8.72802734375,3.47900390625
1777642747.9854233,-0.2662353515625,-0.6397705078125,-0.7098388671875,1.3427734375,-9.033203125,2.99072265625
1777642748.1617942,-0.2510986328125,-0.63427734375,-0.7130126953125,1.5869140625,-7.50732421875,2.0751953125
1777642748.1627948,-0.2384033203125,-0.630615234375,-0.71435546875,1.5869140625,-6.7138671875,1.28173828125
1777642748.1627948,-0.246826171875,-0.6298828125,-0.718994140625,1.3427734375,-5.4931640625,1.46484375
1777642748.1627948,-0.257080078125,-0.6419677734375,-0.726318359375,2.74658203125,-2.5634765625,2.13623046875
1777642748.1627948,-0.25732421875,-0.6573486328125,-0.725830078125,3.23486328125,-0.8544921875,1.5869140625
1777642748.1627948,-0.2607421875,-0.6605224609375,-0.7235107421875,3.5400390625,1.953125,0.42724609375
1777642748.1627948,-0.26025390625,-0.657958984375,-0.7105712890625,3.41796875,2.685546875,-0.79345703125
1777642748.1627948,-0.24951171875,-0.6453857421875,-0.699951171875,1.89208984375,-0.1220703125,-1.64794921875
1777642748.1627948,-0.2431640625,-0.6385498046875,-0.7025146484375,1.77001953125,-2.9296875,-0.67138671875
1777642748.1638012,-0.252685546875,-0.6475830078125,-0.705322265625,1.77001953125,-4.39453125,-0.30517578125
1777642748.1638012,-0.2650146484375,-0.6575927734375,-0.711669921875,2.86865234375,-5.0048828125,-0.18310546875
1777642748.1638012,-0.26513671875,-0.664794921875,-0.7174072265625,4.94384765625,-6.28662109375,0.8544921875
1777642748.1638012,-0.2618408203125,-0.6668701171875,-0.703857421875,6.53076171875,-10.3759765625,2.0751953125
1777642748.1638012,-0.2574462890625,-0.656005859375,-0.6826171875,6.7138671875,-17.2119140625,3.60107421875
1777642748.1638012,-0.2540283203125,-0.6446533203125,-0.6695556640625,7.6904296875,-24.59716796875,6.4697265625
1777642748.1638012,-0.2515869140625,-0.6412353515625,-0.660400390625,8.6669921875,-34.0576171875,10.19287109375
1777642748.1638012,-0.25244140625,-0.6402587890625,-0.6556396484375,10.6201171875,-44.98291015625,15.44189453125
1777642748.1638012,-0.250244140625,-0.6468505859375,-0.666748046875,13.61083984375,-57.9833984375,21.1181640625
1777642748.1638012,-0.2974853515625,-0.64697265625,-0.65576171875,17.08984375,-73.1201171875,27.89306640625
1777642748.1638012,-0.338623046875,-0.6527099609375,-0.63916015625,15.93017578125,-87.58544921875,34.85107421875
1777642748.3570502,-0.358154296875,-0.671142578125,-0.64013671875,14.2822265625,-102.35595703125,39.306640625
1777642748.3570502,-0.395263671875,-0.669921875,-0.6429443359375,9.33837890625,-114.1357421875,41.259765625
1777642748.3570502,-0.44482421875,-0.6832275390625,-0.64599609375,14.58740234375,-123.6572265625,41.19873046875
1777642748.3570502,-0.5069580078125,-0.721435546875,-0.653076171875,16.11328125,-133.9111328125,40.52734375
1777642748.3570502,-0.5057373046875,-0.7413330078125,-0.6910400390625,23.49853515625,-142.822265625,41.32080078125
1777642748.3570502,-0.4375,-0.7264404296875,-0.71484375,32.3486328125,-156.005859375,44.43359375
1777642748.3570502,-0.4102783203125,-0.7027587890625,-0.684326171875,39.4287109375,-179.38232421875,47.18017578125
1777642748.3570502,-0.4462890625,-0.682373046875,-0.6514892578125,37.4755859375,-211.36474609375,53.5888671875
1777642748.3570502,-0.468505859375,-0.656494140625,-0.6663818359375,38.39111328125,-238.28125,61.767578125
1777642748.3570502,-0.491455078125,-0.644287109375,-0.6649169921875,52.67333984375,-261.5966796875,69.03076171875
1777642748.3570502,-0.5333251953125,-0.6348876953125,-0.601318359375,60.11962890625,-286.07177734375,72.509765625
1777642748.3570502,-0.57763671875,-0.61865234375,-0.5283203125,65.00244140625,-312.92724609375,72.75390625
1777642748.3570502,-0.6322021484375,-0.604248046875,-0.4510498046875,67.44384765625,-341.552734375,69.76318359375
1777642748.3570502,-0.73291015625,-0.6090087890625,-0.33544921875,71.83837890625,-365.90576171875,63.232421875
1777642748.3570502,-0.8480224609375,-0.6328125,-0.216552734375,81.35986328125,-381.7138671875,55.7861328125
1777642748.3570502,-0.8978271484375,-0.650390625,-0.1282958984375,91.9189453125,-392.4560546875,48.9501953125
1777642748.3570502,-0.890625,-0.671875,-0.0416259765625,104.67529296875,-400.32958984375,41.015625
1777642748.3570502,-0.897216796875,-0.6741943359375,0.0289306640625,120.361328125,-403.86962890625,31.8603515625
1777642748.3570502,-0.8980712890625,-0.622802734375,0.0267333984375,133.11767578125,-406.18896484375,31.55517578125
1777642748.3570502,-0.844482421875,-0.5672607421875,0.0386962890625,147.88818359375,-406.31103515625,39.306640625
1777642748.533036,-0.7843017578125,-0.53564453125,0.1572265625,175.72021484375,-415.771484375,45.71533203125
1777642748.533036,-0.8031005859375,-0.556640625,0.326171875,179.5654296875,-424.62158203125,51.45263671875
1777642748.533036,-0.8294677734375,-0.6168212890625,0.481689453125,165.71044921875,-425.72021484375,51.20849609375
1777642748.533036,-0.810302734375,-0.6019287109375,0.593017578125,147.27783203125,-416.19873046875,44.677734375
1777642748.533036,-0.7767333984375,-0.5511474609375,0.6375732421875,133.7890625,-404.23583984375,41.93115234375
1777642748.533036,-0.7105712890625,-0.510498046875,0.634521484375,133.544921875,-397.39990234375,42.05322265625
1777642748.533036,-0.6348876953125,-0.4703369140625,0.63818359375,115.53955078125,-378.90625,43.39599609375
1777642748.533036,-0.5714111328125,-0.4478759765625,0.649169921875,106.5673828125,-357.97119140625,43.15185546875
1777642748.533036,-0.50146484375,-0.4232177734375,0.645751953125,96.6796875,-348.14453125,42.724609375
1777642748.533036,-0.418212890625,-0.4005126953125,0.609130859375,86.9140625,-342.83447265625,41.015625
1777642748.533036,-0.360595703125,-0.372314453125,0.56103515625,88.134765625,-335.5712890625,38.75732421875
1777642748.533036,-0.349365234375,-0.3629150390625,0.5633544921875,95.88623046875,-322.1435546875,37.65869140625
1777642748.533036,-0.3460693359375,-0.3846435546875,0.6204833984375,92.6513671875,-305.908203125,32.3486328125
1777642748.533036,-0.3221435546875,-0.3924560546875,0.700927734375,80.01708984375,-278.4423828125,23.62060546875
1777642748.533036,-0.2987060546875,-0.38134765625,0.7562255859375,62.07275390625,-239.501953125,14.2822265625
1777642748.533036,-0.2674560546875,-0.3619384765625,0.7803955078125,48.40087890625,-201.2939453125,5.4931640625
1777642748.533036,-0.2196044921875,-0.336181640625,0.8194580078125,37.353515625,-158.935546875,0.42724609375
1777642748.533036,-0.1844482421875,-0.3367919921875,0.859619140625,26.85546875,-121.76513671875,-3.96728515625
1777642748.533036,-0.1676025390625,-0.364990234375,0.8800048828125,15.19775390625,-104.736328125,-12.51220703125
1777642748.533036,-0.1671142578125,-0.3880615234375,0.902587890625,11.90185546875,-100.09765625,-24.5361328125
1777642748.697153,-0.1768798828125,-0.390625,0.914794921875,10.986328125,-98.388671875,-34.0576171875
1777642748.697153,-0.1435546875,-0.360595703125,0.9534912109375,19.04296875,-92.529296875,-38.26904296875
1777642748.697153,-0.0797119140625,-0.3125,1.029541015625,21.42333984375,-81.60400390625,-37.841796875
1777642748.697153,-0.0518798828125,-0.285888671875,1.0638427734375,14.46533203125,-72.69287109375,-34.24072265625
1777642748.697153,-0.0438232421875,-0.2950439453125,1.0491943359375,4.8828125,-69.76318359375,-30.2734375
1777642748.697153,-0.0107421875,-0.29052734375,1.0076904296875,7.080078125,-68.17626953125,-26.9775390625
1777642748.697153,0.03564453125,-0.2696533203125,0.98681640625,8.6669921875,-69.39697265625,-23.86474609375
1777642748.697153,0.0634765625,-0.268310546875,1.00830078125,6.34765625,-71.533203125,-21.1181640625
1777642748.697153,0.05810546875,-0.2813720703125,1.01611328125,-2.01416015625,-70.86181640625,-19.95849609375
1777642748.697153,0.0396728515625,-0.28271484375,0.986083984375,-1.8310546875,-62.31689453125,-17.4560546875
1777642748.8797767,0.0428466796875,-0.2723388671875,0.9527587890625,0.54931640625,-50.96435546875,-13.18359375
1777642748.8797767,0.0673828125,-0.2608642578125,0.9466552734375,5.18798828125,-40.71044921875,-7.6904296875
1777642748.8797767,0.09375,-0.2515869140625,0.9578857421875,2.3193359375,-29.72412109375,-0.9765625
1777642748.8797767,0.090087890625,-0.2777099609375,0.956787109375,1.5869140625,-19.4091796875,3.60107421875
1777642748.8797767,0.0418701171875,-0.341796875,0.97265625,7.14111328125,-11.04736328125,2.5634765625
1777642748.8797767,0.0025634765625,-0.370849609375,0.984619140625,6.2255859375,-14.6484375,-3.662109375
1777642748.8797767,0.0003662109375,-0.3388671875,0.91845703125,0.1220703125,-17.76123046875,-6.2255859375
1777642748.8797767,0.0123291015625,-0.327392578125,0.881591796875,7.26318359375,-19.287109375,-8.11767578125
1777642748.8797767,0.03955078125,-0.3206787109375,0.923583984375,15.869140625,-23.4375,-10.80322265625
1777642748.8797767,0.0758056640625,-0.3001708984375,0.9757080078125,18.798828125,-20.32470703125,-11.1083984375
1777642748.8797767,0.078857421875,-0.29443359375,1.014892578125,14.46533203125,-15.93017578125,-11.53564453125
1777642748.8797767,0.0537109375,-0.2899169921875,1.008544921875,7.6904296875,-11.3525390625,-9.27734375
1777642748.8797767,0.0623779296875,-0.2830810546875,0.9940185546875,5.55419921875,-4.2724609375,-5.2490234375
1777642748.8797767,0.1002197265625,-0.272705078125,1.001953125,2.5634765625,2.13623046875,-2.38037109375
1777642748.8797767,0.125732421875,-0.2611083984375,0.982421875,0.30517578125,2.74658203125,-1.0986328125
1777642748.8797767,0.1259765625,-0.252685546875,0.9432373046875,2.13623046875,-0.42724609375,0.0
1777642748.8797767,0.1405029296875,-0.252197265625,0.9515380859375,6.40869140625,-0.91552734375,3.5400390625
1777642748.8797767,0.1683349609375,-0.2513427734375,0.9969482421875,7.99560546875,0.244140625,6.103515625
1777642748.8797767,0.150634765625,-0.2593994140625,1.03564453125,10.3759765625,-6.53076171875,6.103515625
1777642748.8797767,0.1185302734375,-0.2755126953125,1.06103515625,9.82666015625,-17.08984375,4.08935546875
1777642749.0564861,0.108154296875,-0.28125,1.081787109375,6.103515625,-14.6484375,4.33349609375
1777642749.0564861,0.0894775390625,-0.2857666015625,1.0809326171875,-1.8310546875,-4.8828125,6.103515625
1777642749.0564861,0.0697021484375,-0.285400390625,1.01708984375,-10.25390625,-0.3662109375,6.591796875
1777642749.0564861,0.073486328125,-0.2744140625,0.9271240234375,-11.962890625,0.732421875,6.4697265625
1777642749.0564861,0.0836181640625,-0.2679443359375,0.86669921875,-7.6904296875,-0.30517578125,5.859375
1777642749.0564861,0.088134765625,-0.2745361328125,0.8560791015625,-1.46484375,-3.662109375,5.615234375
1777642749.0564861,0.0928955078125,-0.287109375,0.8931884765625,2.62451171875,-7.6904296875,3.90625
1777642749.0564861,0.092041015625,-0.2969970703125,0.9420166015625,3.60107421875,-7.6904296875,2.62451171875
1777642749.0564861,0.0872802734375,-0.299560546875,0.9749755859375,2.9296875,-8.23974609375,1.3427734375
1777642749.0564861,0.0938720703125,-0.2958984375,1.007080078125,3.11279296875,-12.75634765625,-0.91552734375
1777642749.0564861,0.095947265625,-0.2974853515625,1.031982421875,3.2958984375,-19.95849609375,-3.11279296875
1777642749.0564861,0.090576171875,-0.308837890625,1.0335693359375,3.0517578125,-24.10888671875,-4.69970703125
1777642749.0564861,0.079833984375,-0.3226318359375,1.0386962890625,-1.220703125,-18.49365234375,-5.0048828125
1777642749.0564861,0.066650390625,-0.3399658203125,1.041259765625,-10.68115234375,-5.0048828125,-3.35693359375
1777642749.0564861,0.0775146484375,-0.3336181640625,1.0015869140625,-18.310546875,5.18798828125,-1.64794921875
1777642749.0564861,0.123291015625,-0.3011474609375,0.9447021484375,-18.12744140625,9.70458984375,0.67138671875
1777642749.0564861,0.156494140625,-0.2822265625,0.9207763671875,-13.61083984375,7.32421875,0.244140625
1777642749.0564861,0.143798828125,-0.2825927734375,0.9234619140625,-8.23974609375,0.48828125,-0.244140625
1777642749.0564861,0.118408203125,-0.292724609375,0.9326171875,-4.638671875,-3.41796875,-0.1220703125
1777642749.0564861,0.083984375,-0.3116455078125,0.94970703125,-4.2724609375,-0.1220703125,0.54931640625
1777642749.2809138,0.03662109375,-0.312744140625,0.87890625,-1.953125,2.197265625,1.5869140625
1777642749.2809138,0.0474853515625,-0.315185546875,0.904296875,8.544921875,1.77001953125,0.54931640625
1777642749.2809138,0.080810546875,-0.303955078125,0.9708251953125,4.8828125,1.3427734375,-0.18310546875
1777642749.2809138,0.0926513671875,-0.28515625,0.9619140625,8.544921875,-0.54931640625,0.42724609375
1777642749.2809138,0.1104736328125,-0.2811279296875,0.9801025390625,7.080078125,-2.44140625,0.6103515625
1777642749.2809138,0.1051025390625,-0.277099609375,0.9599609375,8.544921875,-3.0517578125,2.13623046875
1777642749.2809138,0.0958251953125,-0.2918701171875,0.944580078125,7.8125,-2.8076171875,3.11279296875
1777642749.2809138,0.0859375,-0.3070068359375,0.9305419921875,8.97216796875,0.3662109375,2.86865234375
1777642749.2809138,0.0855712890625,-0.3153076171875,0.940185546875,9.1552734375,6.65283203125,2.50244140625
1777642749.2809138,0.0980224609375,-0.3153076171875,0.95703125,6.77490234375,13.97705078125,1.708984375
1777642749.2809138,0.0966796875,-0.3170166015625,0.97900390625,6.04248046875,18.98193359375,0.30517578125
1777642749.2809138,0.10400390625,-0.3096923828125,1.016357421875,2.9296875,17.27294921875,-3.35693359375
1777642749.2809138,0.1192626953125,-0.2886962890625,1.0406494140625,-0.67138671875,13.7939453125,-5.7373046875
1777642749.2809138,0.1207275390625,-0.277587890625,1.04541015625,-4.5166015625,7.9345703125,-7.26318359375
1777642749.2809138,0.1126708984375,-0.2784423828125,1.0281982421875,-8.7890625,1.77001953125,-7.9345703125
1777642749.2809138,0.099365234375,-0.2752685546875,0.9852294921875,-9.8876953125,-1.15966796875,-7.6904296875
1777642749.2809138,0.0726318359375,-0.28369140625,0.9432373046875,-9.765625,0.79345703125,-5.92041015625
1777642749.2809138,0.0618896484375,-0.306884765625,0.9337158203125,-11.41357421875,5.92041015625,-3.5400390625
1777642749.2809138,0.08251953125,-0.3175048828125,0.9403076171875,-13.36669921875,9.27734375,-4.2724609375
1777642749.2809138,0.1024169921875,-0.306396484375,0.939208984375,-14.58740234375,7.87353515625,-6.28662109375
1777642749.4571671,0.1085205078125,-0.2896728515625,0.94140625,-13.427734375,6.77490234375,-6.4697265625
1777642749.4571671,0.1068115234375,-0.2811279296875,0.9456787109375,-12.87841796875,6.77490234375,-6.04248046875
1777642749.4571671,0.09619140625,-0.2899169921875,0.9559326171875,-12.939453125,7.14111328125,-5.4931640625
1777642749.4571671,0.098388671875,-0.294677734375,0.9609375,-15.869140625,8.48388671875,-5.7373046875
1777642749.4571671,0.12158203125,-0.276611328125,0.938232421875,-14.95361328125,11.04736328125,-6.34765625
1777642749.4571671,0.0703125,-0.3106689453125,0.9398193359375,-10.80322265625,12.20703125,-6.53076171875
1777642749.4571671,0.0498046875,-0.3289794921875,0.9449462890625,-14.5263671875,10.986328125,-6.40869140625
1777642749.4571671,0.0908203125,-0.310546875,0.9395751953125,-10.92529296875,11.474609375,-6.7138671875
1777642749.4571671,0.0775146484375,-0.3201904296875,0.949951171875,-9.70458984375,6.16455078125,-7.50732421875
1777642749.4571671,0.0875244140625,-0.2958984375,0.9327392578125,-8.1787109375,-2.3193359375,-7.75146484375
1777642749.4571671,0.1119384765625,-0.2845458984375,0.92138671875,-1.8310546875,-5.37109375,-7.9345703125
1777642749.4571671,0.08642578125,-0.31103515625,0.939697265625,2.0751953125,-6.4697265625,-6.89697265625
1777642749.4571671,0.0750732421875,-0.3255615234375,0.9534912109375,0.1220703125,-6.8359375,-5.79833984375
1777642749.4571671,0.0626220703125,-0.3426513671875,0.948974609375,0.6103515625,-1.953125,-4.33349609375
1777642749.4571671,0.028076171875,-0.3583984375,0.9359130859375,0.54931640625,0.06103515625,-3.35693359375
1777642749.4571671,0.030029296875,-0.3551025390625,0.9271240234375,1.46484375,3.96728515625,-2.38037109375
1777642749.4571671,0.0247802734375,-0.353271484375,0.9197998046875,6.34765625,8.48388671875,-0.9765625
1777642749.4571671,-0.0028076171875,-0.3594970703125,0.91748046875,12.39013671875,10.498046875,-0.1220703125
1777642749.4571671,-0.0123291015625,-0.3631591796875,0.9365234375,16.6015625,12.51220703125,0.3662109375
1777642749.4571671,0.005615234375,-0.353759765625,0.9688720703125,17.02880859375,17.27294921875,0.9765625
1777642749.6230242,0.022216796875,-0.3359375,0.9815673828125,16.7236328125,22.3388671875,1.8310546875
1777642749.6230242,0.0272216796875,-0.323486328125,0.98046875,18.24951171875,24.7802734375,2.25830078125
1777642749.6230242,0.034423828125,-0.31689453125,0.98779296875,20.20263671875,25.5126953125,2.685546875
1777642749.6230242,0.0516357421875,-0.30615234375,0.9971923828125,23.13232421875,27.16064453125,3.11279296875
1777642749.6230242,0.0723876953125,-0.2872314453125,0.9951171875,23.49853515625,29.47998046875,3.662109375
1777642749.6230242,0.0875244140625,-0.269287109375,0.9884033203125,23.86474609375,32.1044921875,4.8828125
1777642749.6230242,0.086181640625,-0.2623291015625,0.9808349609375,23.62060546875,32.470703125,5.79833984375
1777642749.6230242,0.0826416015625,-0.2650146484375,0.9752197265625,21.30126953125,26.2451171875,5.37109375
1777642749.6230242,0.0816650390625,-0.266845703125,0.97998046875,18.310546875,15.625,3.11279296875
1777642749.6230242,0.0577392578125,-0.2662353515625,0.979248046875,16.2353515625,6.40869140625,1.5869140625
1777642749.6230242,0.0230712890625,-0.275390625,0.9774169921875,16.90673828125,4.0283203125,1.708984375
1777642749.6230242,0.005126953125,-0.2852783203125,0.9923095703125,14.46533203125,7.14111328125,1.64794921875
1777642749.6230242,0.010498046875,-0.27978515625,1.0142822265625,10.25390625,9.6435546875,1.3427734375
1777642749.6230242,0.0263671875,-0.2718505859375,1.02978515625,7.62939453125,10.6201171875,1.15966796875
1777642749.6230242,0.026611328125,-0.266357421875,1.03125,7.2021484375,11.5966796875,0.79345703125
1777642749.6230242,0.01123046875,-0.2576904296875,1.014892578125,7.50732421875,12.3291015625,1.220703125
1777642749.6230242,0.013916015625,-0.2557373046875,0.9959716796875,4.57763671875,13.97705078125,2.25830078125
1777642749.6230242,0.0213623046875,-0.2567138671875,0.97802734375,1.40380859375,16.41845703125,2.44140625
1777642749.6230242,0.02294921875,-0.2529296875,0.95556640625,2.5634765625,16.4794921875,2.99072265625
1777642749.6230242,0.0240478515625,-0.25244140625,0.954833984375,4.8828125,16.6015625,3.96728515625
1777642749.7763417,0.0128173828125,-0.2557373046875,0.969482421875,6.04248046875,16.90673828125,4.39453125
1777642749.7763417,-0.0025634765625,-0.26025390625,0.9888916015625,5.06591796875,18.06640625,5.06591796875
1777642749.7763417,-0.001953125,-0.26025390625,1.0184326171875,1.8310546875,22.52197265625,6.40869140625
1777642749.7763417,0.005615234375,-0.256591796875,1.0484619140625,-1.89208984375,29.4189453125,7.62939453125
1777642749.7763417,-0.0079345703125,-0.258544921875,1.0806884765625,-13.427734375,34.48486328125,6.4697265625
1777642749.7763417,-0.040283203125,-0.2685546875,1.101806640625,-35.5224609375,43.8232421875,3.47900390625
1777642749.7763417,-0.075439453125,-0.298583984375,1.1025390625,-64.5751953125,68.4814453125,-0.1220703125
1777642749.7763417,-0.0673828125,-0.31005859375,1.1014404296875,-97.900390625,115.53955078125,0.6103515625
1777642749.7763417,0.0137939453125,-0.2802734375,1.0830078125,-131.7138671875,184.99755859375,7.6904296875
1777642749.7763417,0.0762939453125,-0.2650146484375,1.0235595703125,-166.19873046875,258.1787109375,14.404296875
1777642749.7763417,0.0863037109375,-0.256591796875,0.931396484375,-192.93212890625,309.26513671875,19.1650390625
1777642749.7763417,0.0567626953125,-0.2760009765625,0.9256591796875,-202.45361328125,335.87646484375,23.62060546875
1777642749.7763417,0.05517578125,-0.3026123046875,0.987548828125,-204.40673828125,354.91943359375,29.23583984375
1777642749.7763417,0.0626220703125,-0.29150390625,0.9639892578125,-205.322265625,370.42236328125,31.3720703125
1777642749.7763417,-0.0250244140625,-0.293212890625,0.8690185546875,-198.3642578125,367.7978515625,33.14208984375
1777642749.7763417,-0.1455078125,-0.3397216796875,0.7840576171875,-199.5849609375,354.91943359375,32.77587890625
1777642749.7763417,-0.2486572265625,-0.400390625,0.7880859375,-206.787109375,330.74951171875,29.72412109375
1777642749.7763417,-0.3779296875,-0.4700927734375,0.80322265625,-219.42138671875,307.0068359375,20.81298828125
1777642749.7763417,-0.53515625,-0.5379638671875,0.75341796875,-235.65673828125,293.15185546875,13.0615234375
1777642749.7763417,-0.6065673828125,-0.5572509765625,0.6552734375,-249.69482421875,293.3349609375,9.70458984375
1777642749.9348798,-0.5640869140625,-0.5086669921875,0.4754638671875,-258.97216796875,304.50439453125,10.986328125
1777642749.9348798,-0.553955078125,-0.4781494140625,0.30517578125,-255.37109375,318.66455078125,18.6767578125
1777642749.9348798,-0.548095703125,-0.4908447265625,0.1351318359375,-240.53955078125,311.8896484375,25.87890625
1777642749.9348798,-0.4791259765625,-0.42431640625,-0.04541015625,-210.693359375,284.24072265625,34.66796875
1777642749.9348798,-0.50146484375,-0.3905029296875,-0.14306640625,-178.77197265625,225.89111328125,44.7998046875
1777642749.9358728,-0.7716064453125,-0.5107421875,-0.1688232421875,-140.80810546875,141.6015625,48.33984375
1777642749.9358728,-1.0767822265625,-0.700927734375,-0.1668701171875,-120.1171875,73.30322265625,47.42431640625
1777642749.9358728,-1.1522216796875,-0.815185546875,-0.148681640625,-106.26220703125,44.37255859375,37.59765625
1777642749.9358728,-1.142578125,-0.83984375,-0.1148681640625,-97.22900390625,17.822265625,18.1884765625
1777642749.9358728,-1.0574951171875,-0.8187255859375,-0.13818359375,-99.30419921875,10.498046875,-0.30517578125
1777642750.198257,-0.9320068359375,-0.7564697265625,-0.1959228515625,-100.15869140625,19.10400390625,-15.2587890625
1777642750.1992474,-0.875,-0.709716796875,-0.241943359375,-101.01318359375,20.20263671875,-23.98681640625
1777642750.1992474,-0.8277587890625,-0.6915283203125,-0.3095703125,-92.22412109375,18.24951171875,-26.3671875
1777642750.1992474,-0.740478515625,-0.66259765625,-0.3807373046875,-79.4677734375,12.8173828125,-25.634765625
1777642750.1992474,-0.673095703125,-0.6263427734375,-0.408203125,-60.791015625,6.16455078125,-22.3388671875
1777642750.1992474,-0.6707763671875,-0.616455078125,-0.3642578125,-47.119140625,-0.42724609375,-16.6015625
1777642750.1992474,-0.6571044921875,-0.6036376953125,-0.3023681640625,-35.21728515625,-7.75146484375,-10.80322265625
1777642750.1992474,-0.6953125,-0.6397705078125,-0.2447509765625,-19.4091796875,-22.64404296875,-6.591796875
1777642750.1992474,-0.795654296875,-0.7242431640625,-0.1541748046875,-14.95361328125,-40.6494140625,-7.87353515625
1777642750.1992474,-0.8560791015625,-0.763671875,-0.0830078125,-14.5263671875,-43.02978515625,-10.25390625
1777642750.1992474,-0.828125,-0.751953125,-0.08251953125,-16.05224609375,-32.28759765625,-10.68115234375
1777642750.1992474,-0.7781982421875,-0.7156982421875,-0.143798828125,-13.85498046875,-24.4140625,-10.7421875
1777642750.1992474,-0.750732421875,-0.6793212890625,-0.220947265625,-1.3427734375,-33.99658203125,-9.09423828125
1777642750.1992474,-0.7149658203125,-0.654296875,-0.2880859375,17.15087890625,-52.3681640625,-6.591796875
1777642750.1992474,-0.6944580078125,-0.6258544921875,-0.3756103515625,40.0390625,-64.5751953125,-3.47900390625
1777642750.1992474,-0.686767578125,-0.6102294921875,-0.4586181640625,75.5615234375,-79.2236328125,0.732421875
1777642750.1992474,-0.672607421875,-0.5804443359375,-0.56103515625,110.3515625,-114.990234375,1.15966796875
1777642750.1992474,-0.6376953125,-0.52392578125,-0.6256103515625,156.73828125,-156.25,1.52587890625
1777642750.1992474,-0.6463623046875,-0.5115966796875,-0.5445556640625,196.1669921875,-187.5,-1.8310546875
1777642750.1992474,-0.7352294921875,-0.542724609375,-0.3887939453125,224.42626953125,-200.68359375,-6.40869140625
1777642750.1992474,-0.8221435546875,-0.583984375,-0.2117919921875,253.41796875,-202.63671875,-13.36669921875
1777642750.1992474,-0.8929443359375,-0.6229248046875,-0.110595703125,276.7333984375,-207.33642578125,-22.15576171875
1777642750.1992474,-0.9765625,-0.636962890625,-0.091552734375,302.42919921875,-213.19580078125,-30.70068359375
1777642750.1992474,-0.9732666015625,-0.61181640625,-0.046875,329.7119140625,-221.25244140625,-34.72900390625
1777642750.1992474,-0.8299560546875,-0.5606689453125,0.1080322265625,350.15869140625,-237.3046875,-44.12841796875
1777642750.1992474,-0.649169921875,-0.501708984375,0.344970703125,357.5439453125,-243.22509765625,-54.50439453125
1777642750.1992474,-0.4788818359375,-0.4049072265625,0.3240966796875,352.23388671875,-252.50244140625,-62.1337890625
1777642750.1992474,-0.202880859375,-0.2515869140625,0.1817626953125,379.7607421875,-277.64892578125,-71.533203125
1777642750.1992474,0.13232421875,-0.0650634765625,0.19287109375,402.16064453125,-302.734375,-75.927734375
1777642750.1992474,0.4224853515625,0.11376953125,0.3582763671875,405.6396484375,-318.359375,-75.8056640625
1777642750.4037483,0.657958984375,0.2469482421875,0.705322265625,387.26806640625,-319.64111328125,-69.88525390625
1777642750.4037483,0.8311767578125,0.3890380859375,1.088134765625,348.0224609375,-304.87060546875,-53.77197265625
1777642750.4037483,0.7425537109375,0.498291015625,1.3743896484375,293.51806640625,-254.33349609375,-22.39990234375
1777642750.4037483,0.333251953125,0.432861328125,1.592529296875,231.8115234375,-176.20849609375,26.611328125
1777642750.4037483,-0.051513671875,0.21826171875,1.6123046875,166.19873046875,-115.3564453125,62.6220703125
1777642750.4037483,-0.3968505859375,-0.0294189453125,1.466064453125,151.9775390625,-101.62353515625,62.56103515625
1777642750.4037483,-0.7266845703125,-0.2913818359375,1.4271240234375,168.27392578125,-136.53564453125,44.98291015625
1777642750.4037483,-0.7606201171875,-0.4443359375,1.41015625,184.99755859375,-184.5703125,19.95849609375
1777642750.4037483,-0.524169921875,-0.3902587890625,1.2506103515625,178.77197265625,-210.51025390625,-11.53564453125
1777642750.4037483,-0.2996826171875,-0.21728515625,0.9635009765625,166.68701171875,-199.21875,-37.7197265625
1777642750.4047484,-0.1676025390625,0.00341796875,0.6912841796875,156.494140625,-162.109375,-46.5087890625
1777642750.4047484,-0.0521240234375,0.18505859375,0.5650634765625,155.21240234375,-101.1962890625,-38.26904296875
1777642750.4047484,0.0343017578125,0.2691650390625,0.62939453125,151.3671875,-39.1845703125,-28.86962890625
1777642750.4047484,0.033447265625,0.255126953125,0.8787841796875,145.99609375,-8.9111328125,-30.70068359375
1777642750.4047484,-0.003173828125,0.220703125,1.2186279296875,132.8125,-4.82177734375,-40.4052734375
1777642750.4047484,-0.0286865234375,0.243896484375,1.3834228515625,109.31396484375,-15.5029296875,-49.31640625
1777642750.4047484,-0.0360107421875,0.2958984375,1.3109130859375,94.7265625,-21.240234375,-48.03466796875
1777642750.4047484,0.006591796875,0.33984375,1.17333984375,86.9140625,-21.240234375,-41.93115234375
1777642750.4047484,0.0972900390625,0.382568359375,1.05859375,81.72607421875,-20.01953125,-34.36279296875
1777642750.4047484,0.1778564453125,0.428955078125,0.977294921875,79.9560546875,-17.88330078125,-24.90234375
1777642750.5806692,0.1966552734375,0.4537353515625,0.9285888671875,81.23779296875,-17.15087890625,-15.56396484375
1777642750.5806692,0.1553955078125,0.4586181640625,0.914306640625,83.3740234375,-21.728515625,-11.1083984375
1777642750.5806692,0.108154296875,0.45556640625,0.98388671875,88.8671875,-33.447265625,-9.1552734375
1777642750.5806692,0.074951171875,0.4429931640625,1.0965576171875,87.34130859375,-41.8701171875,-7.568359375
1777642750.5806692,0.0244140625,0.4130859375,1.184814453125,80.13916015625,-41.015625,-8.11767578125
1777642750.5816717,-0.0274658203125,0.3740234375,1.259521484375,68.9697265625,-32.16552734375,-7.99560546875
1777642750.5816717,-0.0213623046875,0.368408203125,1.2900390625,49.37744140625,-23.37646484375,-8.6669921875
1777642750.5816717,0.0174560546875,0.40869140625,1.217041015625,30.21240234375,-17.02880859375,-9.21630859375
1777642750.5816717,0.05029296875,0.465087890625,1.04931640625,21.728515625,-8.9111328125,-6.16455078125
1777642750.5816717,0.078125,0.4771728515625,0.9329833984375,22.216796875,6.9580078125,0.30517578125
1777642750.5816717,0.0968017578125,0.4517822265625,0.9193115234375,21.8505859375,10.07080078125,2.13623046875
1777642750.5816717,0.109619140625,0.44677734375,0.8843994140625,21.3623046875,5.18798828125,1.5869140625
1777642750.5816717,0.1029052734375,0.449462890625,0.8411865234375,25.634765625,0.6103515625,0.06103515625
1777642750.5816717,0.0743408203125,0.4345703125,0.85986328125,30.94482421875,-4.94384765625,-2.25830078125
1777642750.5816717,0.04443359375,0.413330078125,0.9068603515625,30.33447265625,-5.859375,-5.2490234375
1777642750.5816717,0.0081787109375,0.3968505859375,0.9599609375,25.390625,0.67138671875,-6.591796875
1777642750.5816717,-0.013916015625,0.382568359375,1.0115966796875,17.15087890625,10.3759765625,-5.615234375
1777642750.5816717,-0.008056640625,0.3834228515625,1.0533447265625,7.62939453125,17.4560546875,-4.21142578125
1777642750.5816717,0.0084228515625,0.3900146484375,1.0875244140625,0.67138671875,18.5546875,-2.62451171875
1777642750.5816717,0.020263671875,0.3890380859375,1.0914306640625,-4.82177734375,14.34326171875,-2.197265625
1777642750.756185,0.018310546875,0.389404296875,1.056884765625,-7.6904296875,9.1552734375,-1.89208984375
1777642750.756185,0.0267333984375,0.3975830078125,1.00439453125,-9.3994140625,3.72314453125,-1.708984375
1777642750.756185,0.0570068359375,0.42041015625,0.9404296875,-8.23974609375,-3.84521484375,-1.708984375
1777642750.756185,0.083251953125,0.43603515625,0.89013671875,-2.25830078125,-10.1318359375,-0.3662109375
1777642750.756185,0.0771484375,0.4296875,0.8797607421875,3.35693359375,-12.3291015625,0.79345703125
1777642750.756185,0.0484619140625,0.4024658203125,0.896240234375,6.65283203125,-11.65771484375,1.708984375
1777642750.756185,0.036865234375,0.37060546875,0.921142578125,5.7373046875,-6.9580078125,2.5634765625
1777642750.756185,0.0416259765625,0.3746337890625,0.922119140625,0.06103515625,1.46484375,2.44140625
1777642750.756185,0.027587890625,0.3865966796875,0.885986328125,-2.86865234375,11.474609375,4.45556640625
1777642750.756185,0.0087890625,0.37548828125,0.873291015625,2.197265625,26.55029296875,8.60595703125
1777642750.756185,0.002685546875,0.36328125,0.892333984375,-7.4462890625,24.47509765625,6.28662109375
1777642750.756185,-0.0054931640625,0.3502197265625,0.9066162109375,0.54931640625,15.44189453125,2.50244140625
1777642750.756185,-0.0189208984375,0.3409423828125,0.9189453125,8.6669921875,7.75146484375,0.06103515625
1777642750.756185,-0.0341796875,0.343505859375,0.9140625,10.009765625,1.15966796875,-2.685546875
1777642750.756185,-0.043212890625,0.348876953125,0.9105224609375,12.0849609375,-2.197265625,-4.150390625
1777642750.756185,-0.0367431640625,0.3590087890625,0.914794921875,10.68115234375,-0.732421875,-4.82177734375
1777642750.756185,-0.0247802734375,0.3734130859375,0.9100341796875,9.33837890625,3.23486328125,-6.103515625
1777642750.756185,-0.0108642578125,0.3897705078125,0.912841796875,6.8359375,8.30078125,-6.65283203125
1777642750.756185,0.0052490234375,0.4088134765625,0.9185791015625,2.8076171875,13.48876953125,-6.77490234375
1777642750.756185,0.0079345703125,0.4241943359375,0.9317626953125,0.3662109375,18.00537109375,-5.126953125
1777642750.9331641,0.00830078125,0.4266357421875,0.9517822265625,-1.03759765625,18.49365234375,-2.38037109375
1777642750.9331641,0.0137939453125,0.4219970703125,0.9632568359375,-0.79345703125,14.6484375,-1.28173828125
1777642750.9331641,0.0194091796875,0.4176025390625,0.968994140625,0.67138671875,10.31494140625,-0.48828125
1777642750.9331641,0.0323486328125,0.426513671875,0.9627685546875,2.0751953125,5.615234375,0.244140625
1777642750.9331641,0.047119140625,0.441650390625,0.936279296875,2.38037109375,2.62451171875,0.91552734375
1777642750.9331641,0.0401611328125,0.43896484375,0.91845703125,2.86865234375,3.60107421875,1.5869140625
1777642750.9331641,0.0120849609375,0.424560546875,0.9189453125,1.52587890625,8.544921875,3.0517578125
1777642750.9331641,-0.019775390625,0.40576171875,0.9169921875,-0.48828125,15.2587890625,3.2958984375
1777642750.9331641,-0.0517578125,0.38671875,0.9132080078125,-1.708984375,20.8740234375,1.8310546875
1777642750.9331641,-0.082275390625,0.3787841796875,0.9093017578125,-2.8076171875,24.23095703125,0.1220703125
1777642751.0966861,-0.09619140625,0.384033203125,0.8887939453125,-2.25830078125,27.28271484375,-0.244140625
1777642751.0966861,-0.088134765625,0.3878173828125,0.8804931640625,2.99072265625,30.517578125,-0.1220703125
1777642751.0966861,-0.0599365234375,0.3856201171875,0.9180908203125,4.5166015625,29.541015625,-1.77001953125
1777642751.0966861,-0.0338134765625,0.3834228515625,0.97412109375,-1.40380859375,22.94921875,-6.8359375
1777642751.0966861,-0.0296630859375,0.406494140625,0.9940185546875,-8.1787109375,14.70947265625,-10.8642578125
1777642751.0966861,-0.0062255859375,0.4588623046875,0.9766845703125,-10.31494140625,7.87353515625,-8.72802734375
1777642751.0966861,0.0267333984375,0.488525390625,0.964599609375,-9.8876953125,3.90625,-3.662109375
1777642751.0966861,0.0264892578125,0.4742431640625,0.9556884765625,-7.87353515625,4.39453125,1.64794921875
1777642751.0966861,0.0,0.4432373046875,0.9385986328125,-6.34765625,4.08935546875,5.18798828125
1777642751.0966861,-0.0272216796875,0.4150390625,0.91796875,-5.126953125,1.77001953125,6.53076171875
1777642751.0966861,-0.0460205078125,0.39599609375,0.9017333984375,-3.41796875,1.40380859375,6.34765625
1777642751.0966861,-0.0635986328125,0.3841552734375,0.8890380859375,-2.62451171875,3.41796875,5.7373046875
1777642751.0966861,-0.076171875,0.3773193359375,0.87939453125,-1.77001953125,5.67626953125,4.638671875
1777642751.0966861,-0.085205078125,0.3677978515625,0.8868408203125,-0.67138671875,8.056640625,3.662109375
1777642751.0966861,-0.09033203125,0.357666015625,0.904052734375,-0.6103515625,9.70458984375,2.0751953125
1777642751.0966861,-0.0865478515625,0.3599853515625,0.9095458984375,-1.8310546875,10.43701171875,0.48828125
1777642751.0966861,-0.0758056640625,0.3681640625,0.9019775390625,-2.0751953125,12.0849609375,-0.6103515625
1777642751.0966861,-0.081787109375,0.3731689453125,0.8809814453125,1.89208984375,14.2822265625,-1.5869140625
1777642751.0966861,-0.0865478515625,0.3675537109375,0.893798828125,7.87353515625,15.625,-1.89208984375
1777642751.0966861,-0.0814208984375,0.366943359375,0.9268798828125,7.2021484375,11.5966796875,-5.2490234375
1777642751.2643003,-0.099365234375,0.3699951171875,0.9354248046875,9.521484375,10.8642578125,-7.6904296875
1777642751.2643003,-0.12353515625,0.37548828125,0.9482421875,22.216796875,13.36669921875,-9.33837890625
1777642751.2643003,-0.1522216796875,0.37939453125,0.976806640625,19.59228515625,11.3525390625,-11.04736328125
1777642751.2643003,-0.172119140625,0.375,1.0064697265625,9.521484375,7.2021484375,-12.5732421875
1777642751.2643003,-0.1529541015625,0.3846435546875,1.0185546875,-0.8544921875,1.8310546875,-14.6484375
1777642751.2643003,-0.1116943359375,0.409912109375,1.0107421875,-6.28662109375,-0.3662109375,-14.892578125
1777642751.2643003,-0.0621337890625,0.43798828125,0.9776611328125,-11.29150390625,1.0986328125,-12.75634765625
1777642751.2643003,-0.0111083984375,0.463623046875,0.9312744140625,-13.671875,0.3662109375,-10.07080078125
1777642751.2643003,0.0294189453125,0.484375,0.8878173828125,-11.8408203125,-3.662109375,-7.01904296875
1777642751.2643003,0.0408935546875,0.485107421875,0.8553466796875,-6.4697265625,-8.60595703125,-3.72314453125
1777642751.2643003,0.0130615234375,0.4613037109375,0.8385009765625,-0.244140625,-10.55908203125,-0.48828125
1777642751.2643003,-0.0284423828125,0.4329833984375,0.83251953125,4.45556640625,-9.09423828125,1.708984375
1777642751.2643003,-0.057861328125,0.41015625,0.850341796875,8.30078125,-4.94384765625,3.47900390625
1777642751.2643003,-0.0718994140625,0.392822265625,0.88134765625,7.9345703125,-0.54931640625,3.96728515625
1777642751.2643003,-0.0721435546875,0.3861083984375,0.9085693359375,6.4697265625,3.11279296875,3.84521484375
1777642751.2643003,-0.068359375,0.385986328125,0.931396484375,4.7607421875,4.8828125,2.99072265625
1777642751.2643003,-0.0738525390625,0.3853759765625,0.9443359375,3.90625,4.45556640625,2.44140625
1777642751.2643003,-0.0914306640625,0.377197265625,0.9508056640625,3.60107421875,1.03759765625,1.220703125
1777642751.2643003,-0.1104736328125,0.36767578125,0.954833984375,3.96728515625,-1.953125,-0.06103515625
1777642751.2643003,-0.114990234375,0.367919921875,0.9473876953125,2.9296875,-2.86865234375,-0.8544921875
1777642751.454672,-0.1075439453125,0.3724365234375,0.9263916015625,1.40380859375,-2.13623046875,-1.46484375
1777642751.454672,-0.0936279296875,0.378662109375,0.9072265625,1.28173828125,-1.708984375,-1.8310546875
1777642751.454672,-0.0699462890625,0.3944091796875,0.8995361328125,2.3193359375,-2.44140625,-2.01416015625
1777642751.454672,-0.0533447265625,0.4078369140625,0.9010009765625,3.11279296875,-2.86865234375,-1.8310546875
1777642751.454672,-0.05859375,0.412353515625,0.9022216796875,3.47900390625,-1.5869140625,-0.67138671875
1777642751.454672,-0.0728759765625,0.411865234375,0.90478515625,3.35693359375,1.5869140625,0.732421875
1777642751.454672,-0.0853271484375,0.409912109375,0.912353515625,3.2958984375,4.33349609375,0.6103515625
1777642751.454672,-0.0955810546875,0.40673828125,0.9244384765625,3.662109375,3.2958984375,-0.67138671875
1777642751.454672,-0.1031494140625,0.401611328125,0.9384765625,3.662109375,1.708984375,-1.89208984375
1777642751.454672,-0.1021728515625,0.39892578125,0.94970703125,2.13623046875,3.2958984375,-2.0751953125
1777642751.454672,-0.092041015625,0.4049072265625,0.9449462890625,-1.28173828125,7.75146484375,-0.8544921875
1777642751.454672,-0.0816650390625,0.4161376953125,0.917724609375,-3.41796875,10.498046875,0.42724609375
1777642751.454672,-0.072509765625,0.4228515625,0.8931884765625,-1.15966796875,6.4697265625,0.244140625
1777642751.454672,-0.06494140625,0.421875,0.893310546875,2.86865234375,-0.244140625,-0.48828125
1777642751.454672,-0.068115234375,0.41455078125,0.90478515625,5.126953125,-2.8076171875,-0.6103515625
1777642751.454672,-0.0797119140625,0.4083251953125,0.9068603515625,4.638671875,-0.3662109375,0.1220703125
1777642751.454672,-0.09375,0.4052734375,0.8968505859375,3.5400390625,4.08935546875,0.732421875
1777642751.454672,-0.1033935546875,0.4014892578125,0.8883056640625,4.21142578125,5.37109375,-0.1220703125
1777642751.454672,-0.101318359375,0.3980712890625,0.8956298828125,4.7607421875,3.72314453125,-2.01416015625
1777642751.454672,-0.0919189453125,0.403076171875,0.9193115234375,4.7607421875,3.2958984375,-2.99072265625
1777642751.6261985,-0.0570068359375,0.4256591796875,0.96826171875,8.7890625,1.0986328125,-2.9296875
1777642751.6261985,-0.04931640625,0.4317626953125,0.989501953125,14.70947265625,-3.662109375,-1.89208984375
1777642751.6261985,-0.0784912109375,0.4163818359375,0.96923828125,1.5869140625,-4.39453125,-0.244140625
1777642751.6261985,-0.088134765625,0.4111328125,0.944091796875,-1.03759765625,-1.28173828125,1.46484375
1777642751.6261985,-0.091064453125,0.4033203125,0.9180908203125,-1.03759765625,1.28173828125,2.197265625
1777642751.6261985,-0.096923828125,0.397216796875,0.9072265625,0.91552734375,2.01416015625,1.46484375
1777642751.6261985,-0.1015625,0.398193359375,0.90576171875,0.1220703125,2.8076171875,0.91552734375
1777642751.6261985,-0.098876953125,0.399169921875,0.9068603515625,-0.18310546875,5.06591796875,0.1220703125
1777642751.6261985,-0.0960693359375,0.4093017578125,0.8955078125,1.46484375,1.46484375,-1.89208984375
1777642751.6261985,-0.0933837890625,0.421142578125,0.8856201171875,3.5400390625,-5.43212890625,-3.35693359375
1777642751.6261985,-0.083984375,0.4273681640625,0.895263671875,5.126953125,-7.8125,-2.74658203125
1777642751.6261985,-0.0731201171875,0.4326171875,0.9049072265625,6.34765625,-7.32421875,-1.89208984375
1777642751.6261985,-0.0692138671875,0.43310546875,0.9130859375,6.34765625,-7.9345703125,-1.0986328125
1777642751.6261985,-0.0762939453125,0.430419921875,0.919921875,5.06591796875,-8.11767578125,-0.732421875
1777642751.6261985,-0.083984375,0.4283447265625,0.9237060546875,4.5166015625,-5.67626953125,0.18310546875
1777642751.6261985,-0.0806884765625,0.427978515625,0.9281005859375,3.60107421875,-2.01416015625,1.15966796875
1777642751.6261985,-0.07275390625,0.425048828125,0.9296875,1.64794921875,0.1220703125,1.52587890625
1777642751.6261985,-0.0745849609375,0.4183349609375,0.921630859375,0.18310546875,1.708984375,1.953125
1777642751.6261985,-0.0845947265625,0.411376953125,0.90771484375,0.42724609375,2.50244140625,2.197265625
1777642751.6261985,-0.091552734375,0.4080810546875,0.898193359375,1.0986328125,0.8544921875,1.52587890625
1777642751.805046,-0.0982666015625,0.406982421875,0.89501953125,2.685546875,-1.46484375,0.67138671875
1777642751.805046,-0.102294921875,0.4083251953125,0.8944091796875,4.5166015625,-4.33349609375,-1.03759765625
1777642751.805046,-0.0977783203125,0.41357421875,0.9024658203125,6.591796875,-6.7138671875,-2.197265625
1777642751.805046,-0.085693359375,0.4197998046875,0.9197998046875,7.14111328125,-6.16455078125,-2.3193359375
1777642751.805046,-0.0772705078125,0.4251708984375,0.9246826171875,6.2255859375,-4.0283203125,-2.197265625
1777642751.805046,-0.076416015625,0.42578125,0.9217529296875,4.94384765625,-3.0517578125,-1.46484375
1777642751.805046,-0.07373046875,0.42626953125,0.91943359375,3.5400390625,-2.13623046875,-0.91552734375
1777642751.805046,-0.0728759765625,0.4290771484375,0.9156494140625,2.9296875,-0.18310546875,-0.42724609375
1777642751.805046,-0.0726318359375,0.4273681640625,0.917236328125,3.7841796875,0.9765625,-0.1220703125
1777642751.8055513,-0.0745849609375,0.4224853515625,0.919189453125,0.6103515625,0.8544921875,-0.244140625
1777642751.8055513,-0.0792236328125,0.4205322265625,0.9149169921875,0.0,2.8076171875,0.30517578125
1777642751.8055513,-0.08056640625,0.4228515625,0.904296875,0.48828125,3.173828125,0.1220703125
1777642751.8055513,-0.0828857421875,0.4228515625,0.8934326171875,1.89208984375,0.8544921875,-0.30517578125
1777642751.8055513,-0.077880859375,0.4246826171875,0.892333984375,3.90625,-1.15966796875,-0.48828125
1777642751.8055513,-0.076171875,0.4288330078125,0.894775390625,6.2255859375,-2.9296875,-0.79345703125
1777642751.8055513,-0.0826416015625,0.4283447265625,0.9014892578125,7.4462890625,-4.57763671875,-0.48828125
1777642751.8055513,-0.08544921875,0.4285888671875,0.9129638671875,7.87353515625,-4.150390625,-0.42724609375
1777642751.8055513,-0.09033203125,0.429931640625,0.916015625,8.056640625,-2.86865234375,-1.0986328125
1777642751.8055513,-0.0965576171875,0.4278564453125,0.917724609375,7.38525390625,-2.38037109375,-1.77001953125
1777642751.8055513,-0.10400390625,0.423095703125,0.919921875,4.8828125,-3.0517578125,-3.41796875
1777642751.962962,-0.096435546875,0.4281005859375,0.917236328125,1.5869140625,-4.0283203125,-5.0048828125
1777642751.962962,-0.0733642578125,0.4395751953125,0.9171142578125,-0.48828125,-3.173828125,-4.69970703125
1777642751.962962,-0.0498046875,0.44921875,0.91455078125,-2.99072265625,0.30517578125,-2.8076171875
1777642751.962962,-0.0462646484375,0.44921875,0.898193359375,-3.5400390625,1.77001953125,-1.15966796875
1777642751.962962,-0.0614013671875,0.43896484375,0.8818359375,-1.89208984375,-0.54931640625,-0.18310546875
1777642751.962962,-0.072265625,0.43115234375,0.882568359375,1.28173828125,-3.90625,0.06103515625
1777642751.962962,-0.083984375,0.4276123046875,0.8944091796875,3.84521484375,-5.67626953125,-0.1220703125
1777642751.962962,-0.0897216796875,0.4288330078125,0.912841796875,4.69970703125,-5.4931640625,-0.48828125
1777642751.962962,-0.08544921875,0.432373046875,0.928466796875,2.99072265625,-3.11279296875,-0.67138671875
1777642751.962962,-0.082763671875,0.4346923828125,0.9263916015625,0.42724609375,0.18310546875,-0.732421875
1777642752.12421,-0.0843505859375,0.43408203125,0.9144287109375,-0.67138671875,2.197265625,-0.6103515625
1777642752.12421,-0.0819091796875,0.4337158203125,0.9029541015625,-1.0986328125,2.13623046875,-0.6103515625
1777642752.12421,-0.0706787109375,0.436767578125,0.8951416015625,-1.220703125,0.91552734375,-0.67138671875
1777642752.12421,-0.0634765625,0.437744140625,0.89453125,-0.732421875,-0.42724609375,-0.18310546875
1777642752.12421,-0.064208984375,0.4361572265625,0.8948974609375,-0.18310546875,-2.13623046875,0.0
1777642752.12421,-0.076416015625,0.4310302734375,0.89501953125,0.8544921875,-3.96728515625,-0.06103515625
1777642752.12421,-0.0888671875,0.4222412109375,0.8988037109375,3.11279296875,-4.0283203125,-0.18310546875
1777642752.12421,-0.09375,0.419189453125,0.90576171875,4.94384765625,-3.41796875,-0.79345703125
1777642752.12421,-0.086669921875,0.4271240234375,0.9134521484375,5.92041015625,-1.8310546875,-0.3662109375
1777642752.12421,-0.0733642578125,0.4349365234375,0.919189453125,5.06591796875,0.30517578125,-0.1220703125
1777642752.12421,-0.078369140625,0.43408203125,0.9229736328125,3.2958984375,2.9296875,-0.1220703125
1777642752.12421,-0.086181640625,0.4285888671875,0.9246826171875,0.732421875,4.150390625,-0.3662109375
1777642752.12421,-0.07861328125,0.4361572265625,0.9136962890625,-2.5634765625,4.21142578125,-1.28173828125
1777642752.12421,-0.06494140625,0.4522705078125,0.8955078125,-2.62451171875,4.45556640625,-0.8544921875
1777642752.12421,-0.0623779296875,0.454833984375,0.8851318359375,-2.197265625,3.0517578125,-0.30517578125
1777642752.12421,-0.07568359375,0.4442138671875,0.8885498046875,-0.8544921875,-0.18310546875,-0.54931640625
1777642752.12421,-0.0845947265625,0.433837890625,0.8988037109375,-0.6103515625,-2.50244140625,-0.9765625
1777642752.12421,-0.08154296875,0.431396484375,0.904541015625,-0.6103515625,-2.13623046875,-0.9765625
1777642752.12421,-0.0775146484375,0.4315185546875,0.9061279296875,-0.30517578125,-1.3427734375,-0.30517578125
1777642752.12421,-0.0814208984375,0.4302978515625,0.90234375,-0.48828125,-2.0751953125,-0.1220703125
1777642752.2889924,-0.0848388671875,0.43017578125,0.8994140625,0.3662109375,-2.62451171875,-0.1220703125
1777642752.2889924,-0.0830078125,0.433837890625,0.90380859375,1.40380859375,-2.44140625,-0.18310546875
1777642752.2889924,-0.0849609375,0.43359375,0.91357421875,1.77001953125,-0.91552734375,0.1220703125
1777642752.2899945,-0.0814208984375,0.4320068359375,0.92333984375,0.8544921875,1.40380859375,0.3662109375
1777642752.2899945,-0.0758056640625,0.4366455078125,0.9217529296875,-0.91552734375,4.0283203125,0.8544921875
1777642752.2899945,-0.072509765625,0.438720703125,0.9078369140625,-2.38037109375,5.79833984375,1.40380859375
1777642752.2899945,-0.0775146484375,0.432861328125,0.891845703125,-1.953125,3.2958984375,0.48828125
1777642752.2899945,-0.0848388671875,0.42822265625,0.876953125,1.0986328125,-0.91552734375,-0.732421875
1777642752.2899945,-0.0816650390625,0.4288330078125,0.87939453125,4.7607421875,-5.126953125,-1.64794921875
1777642752.2899945,-0.0736083984375,0.4320068359375,0.8997802734375,5.615234375,-6.89697265625,-1.46484375
1777642752.454335,-0.07666015625,0.430908203125,0.9140625,4.45556640625,-5.859375,-0.91552734375
1777642752.454335,-0.084716796875,0.4300537109375,0.9180908203125,2.99072265625,-3.72314453125,-0.48828125
1777642752.454335,-0.0823974609375,0.4342041015625,0.9178466796875,1.64794921875,-1.89208984375,-0.6103515625
1777642752.454335,-0.08056640625,0.4385986328125,0.91357421875,0.6103515625,-0.6103515625,-0.3662109375
1777642752.455335,-0.0787353515625,0.4400634765625,0.908203125,-0.06103515625,0.244140625,-0.1220703125
1777642752.455335,-0.074462890625,0.4395751953125,0.9044189453125,-0.244140625,0.30517578125,-0.1220703125
1777642752.455335,-0.0728759765625,0.4404296875,0.9000244140625,-0.1220703125,-0.30517578125,-0.1220703125
1777642752.455335,-0.0750732421875,0.4390869140625,0.899169921875,0.54931640625,-0.732421875,-0.06103515625
1777642752.455335,-0.07666015625,0.4368896484375,0.901123046875,0.91552734375,-0.91552734375,-0.3662109375
1777642752.455335,-0.0767822265625,0.4349365234375,0.90234375,1.46484375,-1.8310546875,-0.91552734375
1777642752.455335,-0.074951171875,0.43408203125,0.910888671875,1.0986328125,-1.64794921875,-0.79345703125
1777642752.455335,-0.07861328125,0.4312744140625,0.917724609375,-0.30517578125,0.42724609375,-0.42724609375
1777642752.455335,-0.0810546875,0.4307861328125,0.9107666015625,-0.8544921875,2.0751953125,-0.06103515625
1777642752.455335,-0.0753173828125,0.434326171875,0.9010009765625,-0.79345703125,1.89208984375,0.30517578125
1777642752.455335,-0.0731201171875,0.4351806640625,0.8924560546875,0.18310546875,0.42724609375,0.48828125
1777642752.455335,-0.0775146484375,0.4346923828125,0.890625,1.77001953125,-1.3427734375,0.30517578125
1777642752.455335,-0.08251953125,0.4351806640625,0.900390625,2.50244140625,-1.64794921875,0.1220703125
1777642752.455335,-0.08154296875,0.4373779296875,0.910400390625,1.953125,-0.91552734375,-0.06103515625
1777642752.455335,-0.0784912109375,0.438720703125,0.9111328125,0.54931640625,-0.30517578125,-0.30517578125
1777642752.455335,-0.077880859375,0.4385986328125,0.904296875,-0.18310546875,-0.244140625,-0.6103515625
1777642752.6138787,-0.07861328125,0.4366455078125,0.8985595703125,0.06103515625,-1.220703125,-1.03759765625
1777642752.6138787,-0.076904296875,0.4361572265625,0.8939208984375,1.0986328125,-2.99072265625,-1.5869140625
1777642752.6138787,-0.07470703125,0.4376220703125,0.89599609375,2.01416015625,-4.82177734375,-1.953125
1777642752.6138787,-0.0755615234375,0.4368896484375,0.903564453125,1.708984375,-5.06591796875,-1.8310546875
1777642752.6138787,-0.0794677734375,0.435302734375,0.90478515625,1.708984375,-4.57763671875,-1.64794921875
1777642752.6138787,-0.0819091796875,0.4339599609375,0.9053955078125,2.44140625,-3.662109375,-1.40380859375
1777642752.6138787,-0.081298828125,0.43212890625,0.9129638671875,2.9296875,-1.5869140625,-0.732421875
1777642752.6138787,-0.0823974609375,0.432373046875,0.918212890625,2.13623046875,0.732421875,-0.18310546875
1777642752.6138787,-0.0830078125,0.4346923828125,0.919921875,1.03759765625,3.60107421875,0.6103515625
1777642752.6138787,-0.080078125,0.443359375,0.92529296875,-1.220703125,6.103515625,1.0986328125
1777642752.6138787,-0.1014404296875,0.4552001953125,0.9541015625,-5.7373046875,7.75146484375,1.64794921875
1777642752.6138787,-0.2000732421875,0.446044921875,1.0428466796875,-14.58740234375,11.5966796875,3.662109375
1777642752.6138787,-0.27197265625,0.46435546875,1.29931640625,-26.91650390625,19.71435546875,6.8359375
1777642752.6138787,-0.192138671875,0.544921875,1.8177490234375,-48.64501953125,13.36669921875,9.3994140625
1777642752.6138787,-0.0611572265625,0.676025390625,2.43994140625,-94.78759765625,-5.18798828125,8.30078125
1777642752.6138787,0.082275390625,0.8138427734375,2.8275146484375,-182.7392578125,-1.15966796875,18.310546875
1777642752.6138787,0.2637939453125,0.915771484375,2.7010498046875,-286.56005859375,46.32568359375,33.75244140625
1777642752.6138787,0.461181640625,1.07861328125,2.1048583984375,-376.64794921875,115.3564453125,58.04443359375
1777642752.6138787,0.7679443359375,1.275634765625,1.195556640625,-427.001953125,184.87548828125,87.2802734375
1777642752.6138787,0.9552001953125,1.264892578125,0.2808837890625,-402.4658203125,217.22412109375,98.388671875
1777642752.7833228,0.7381591796875,1.0137939453125,-0.3563232421875,-305.11474609375,161.865234375,90.39306640625
1777642752.7833228,0.342529296875,0.6392822265625,-0.643310546875,-184.99755859375,55.7861328125,91.4306640625
1777642752.7833228,-0.0570068359375,0.2005615234375,-0.587890625,-91.552734375,-37.4755859375,90.75927734375
1777642752.7833228,-0.4510498046875,-0.2135009765625,-0.36669921875,-29.4189453125,-72.998046875,76.96533203125
1777642752.7833228,-0.7860107421875,-0.5264892578125,-0.178955078125,12.0849609375,-64.51416015625,51.20849609375
1777642752.7833228,-1.01171875,-0.6971435546875,-0.0849609375,33.8134765625,-38.57421875,19.83642578125
1777642752.7833228,-1.0843505859375,-0.7052001953125,-0.01904296875,45.41015625,-5.7373046875,-8.11767578125
1777642752.7833228,-1.0286865234375,-0.6083984375,0.0855712890625,59.63134765625,21.30126953125,-27.16064453125
1777642752.7833228,-0.9119873046875,-0.479248046875,0.2659912109375,75.3173828125,32.28759765625,-41.93115234375
1777642752.7833228,-0.76318359375,-0.323486328125,0.4456787109375,90.33203125,30.3955078125,-53.1005859375
1777642752.7833228,-0.646728515625,-0.158447265625,0.553466796875,111.2060546875,17.51708984375,-60.97412109375
1777642752.7833228,-0.584716796875,-0.0601806640625,0.67431640625,134.521484375,-2.197265625,-62.1337890625
1777642752.7843282,-0.47705078125,0.021484375,0.858642578125,146.78955078125,-24.47509765625,-64.39208984375
1777642752.7843282,-0.304443359375,0.1627197265625,1.0205078125,148.86474609375,-38.6962890625,-65.49072265625
1777642752.7843282,-0.0985107421875,0.325439453125,1.14013671875,145.20263671875,-47.7294921875,-63.29345703125
1777642752.7843282,0.111083984375,0.477294921875,1.246337890625,137.75634765625,-47.30224609375,-57.18994140625
1777642752.7843282,0.2464599609375,0.5677490234375,1.3369140625,122.314453125,-35.7666015625,-46.81396484375
1777642752.7843282,0.28466796875,0.6060791015625,1.354736328125,101.01318359375,-18.85986328125,-33.38623046875
1777642752.7843282,0.2510986328125,0.59326171875,1.306396484375,83.1298828125,-1.89208984375,-18.37158203125
1777642752.7843282,0.1405029296875,0.5250244140625,1.2696533203125,72.20458984375,2.38037109375,-10.68115234375
1777642752.9434764,0.016357421875,0.46044921875,1.2701416015625,66.46728515625,-3.84521484375,-7.26318359375
1777642752.9434764,-0.0477294921875,0.427001953125,1.29638671875,58.41064453125,-7.4462890625,-4.94384765625
1777642752.9434764,-0.057373046875,0.4248046875,1.3056640625,47.91259765625,-7.8125,-3.11279296875
1777642752.9434764,-0.035400390625,0.4349365234375,1.2764892578125,39.24560546875,-13.00048828125,-1.40380859375
1777642752.9434764,-0.0242919921875,0.427978515625,1.2237548828125,35.400390625,-22.15576171875,0.6103515625
1777642752.9434764,-0.0321044921875,0.4141845703125,1.1644287109375,31.06689453125,-32.958984375,2.62451171875
1777642752.9434764,-0.0447998046875,0.4017333984375,1.1055908203125,22.27783203125,-38.75732421875,5.4931640625
1777642752.9434764,-0.0718994140625,0.3828125,1.0323486328125,13.671875,-35.15625,9.033203125
1777642752.9434764,-0.110107421875,0.3580322265625,0.9459228515625,7.75146484375,-27.587890625,12.451171875
1777642752.9434764,-0.1396484375,0.3343505859375,0.8721923828125,4.638671875,-20.01953125,14.46533203125
1777642753.1008773,-0.15625,0.3197021484375,0.826171875,3.47900390625,-13.671875,14.16015625
1777642753.1008773,-0.1798095703125,0.3123779296875,0.8096923828125,5.55419921875,-8.30078125,12.8173828125
1777642753.1008773,-0.218505859375,0.296630859375,0.846435546875,9.70458984375,-3.35693359375,11.65771484375
1777642753.1008773,-0.230712890625,0.282958984375,0.92578125,8.85009765625,0.3662109375,10.009765625
1777642753.1008773,-0.2041015625,0.2899169921875,0.982421875,3.90625,6.04248046875,8.1787109375
1777642753.1008773,-0.189453125,0.2896728515625,1.007080078125,1.8310546875,9.3994140625,5.67626953125
1777642753.1008773,-0.1888427734375,0.2779541015625,1.0111083984375,-2.0751953125,6.7138671875,2.50244140625
1777642753.1008773,-0.1837158203125,0.278076171875,0.9866943359375,-4.0283203125,2.9296875,-0.79345703125
1777642753.1008773,-0.1900634765625,0.274658203125,0.960693359375,-2.50244140625,0.30517578125,-2.86865234375
1777642753.1008773,-0.1839599609375,0.2734375,0.9434814453125,-0.244140625,-3.47900390625,-5.0048828125
1777642753.1008773,-0.1566162109375,0.288330078125,0.9306640625,0.18310546875,-4.69970703125,-5.859375
1777642753.1008773,-0.1380615234375,0.30712890625,0.920654296875,0.9765625,-1.89208984375,-5.79833984375
1777642753.1008773,-0.121337890625,0.3275146484375,0.912841796875,0.79345703125,2.13623046875,-4.5166015625
1777642753.1008773,-0.1055908203125,0.3446044921875,0.910888671875,1.28173828125,2.9296875,-4.2724609375
1777642753.1008773,-0.0941162109375,0.3507080078125,0.929931640625,3.41796875,1.28173828125,-3.90625
1777642753.1008773,-0.086181640625,0.3502197265625,0.958984375,2.685546875,0.48828125,-3.35693359375
1777642753.1008773,-0.099609375,0.34326171875,0.9686279296875,2.01416015625,-0.30517578125,-3.11279296875
1777642753.1008773,-0.12255859375,0.329833984375,0.967529296875,2.13623046875,-2.62451171875,-3.11279296875
1777642753.1008773,-0.13134765625,0.3238525390625,0.9537353515625,2.0751953125,-5.31005859375,-3.662109375
1777642753.1008773,-0.1336669921875,0.3223876953125,0.9351806640625,2.99072265625,-7.6904296875,-4.5166015625
1777642753.247069,-0.1396484375,0.3167724609375,0.9317626953125,3.5400390625,-7.38525390625,-4.57763671875
1777642753.247069,-0.152587890625,0.30810546875,0.9342041015625,1.8310546875,-3.60107421875,-4.39453125
1777642753.247069,-0.155029296875,0.309814453125,0.936767578125,0.244140625,-0.1220703125,-3.7841796875
1777642753.247069,-0.1363525390625,0.3232421875,0.94140625,-0.8544921875,2.3193359375,-2.9296875
1777642753.247069,-0.1317138671875,0.3250732421875,0.94384765625,-1.40380859375,4.08935546875,-2.50244140625
1777642753.247069,-0.15234375,0.31103515625,0.9461669921875,-1.953125,7.14111328125,-2.38037109375
1777642753.247069,-0.169677734375,0.3023681640625,0.9383544921875,-3.2958984375,12.75634765625,-2.86865234375
1777642753.247069,-0.1756591796875,0.310791015625,0.9163818359375,-2.9296875,18.37158203125,-4.638671875
1777642753.247069,-0.15380859375,0.3319091796875,0.894775390625,-1.40380859375,15.44189453125,-6.16455078125
1777642753.247069,-0.1077880859375,0.3553466796875,0.896240234375,1.40380859375,8.1787109375,-6.53076171875
1777642753.417993,-0.091552734375,0.3641357421875,0.9217529296875,5.126953125,3.84521484375,-5.43212890625
1777642753.417993,-0.102294921875,0.3603515625,0.9432373046875,5.79833984375,1.8310546875,-3.60107421875
1777642753.417993,-0.107666015625,0.3553466796875,0.9595947265625,7.080078125,-0.244140625,-1.77001953125
1777642753.417993,-0.1029052734375,0.3525390625,0.97119140625,8.23974609375,-2.9296875,-0.6103515625
1777642753.417993,-0.1068115234375,0.349365234375,0.96923828125,7.50732421875,-4.45556640625,-0.1220703125
1777642753.417993,-0.122802734375,0.3414306640625,0.96533203125,6.8359375,-4.57763671875,0.06103515625
1777642753.417993,-0.138427734375,0.331298828125,0.96923828125,5.06591796875,-4.21142578125,-0.54931640625
1777642753.417993,-0.153076171875,0.3218994140625,0.9739990234375,2.50244140625,-1.77001953125,-1.0986328125
1777642753.417993,-0.1632080078125,0.318603515625,0.9627685546875,0.3662109375,1.77001953125,-2.01416015625
1777642753.417993,-0.1605224609375,0.3248291015625,0.940185546875,-0.18310546875,1.64794921875,-3.173828125
1777642753.417993,-0.140625,0.333740234375,0.9241943359375,0.67138671875,-0.91552734375,-3.72314453125
1777642753.417993,-0.132568359375,0.333740234375,0.91357421875,2.44140625,-2.01416015625,-3.5400390625
1777642753.417993,-0.1500244140625,0.322265625,0.908935546875,3.47900390625,-1.3427734375,-3.0517578125
1777642753.417993,-0.172607421875,0.306640625,0.91357421875,3.72314453125,1.220703125,-3.0517578125
1777642753.417993,-0.1885986328125,0.297607421875,0.9261474609375,2.50244140625,6.04248046875,-3.23486328125
1777642753.417993,-0.175048828125,0.310791015625,0.9268798828125,1.46484375,13.3056640625,-2.62451171875
1777642753.417993,-0.1773681640625,0.3189697265625,0.9385986328125,0.79345703125,20.44677734375,-1.8310546875
1777642753.417993,-0.1993408203125,0.3111572265625,0.955078125,-4.33349609375,23.4375,-1.28173828125
1777642753.417993,-0.1793212890625,0.3203125,0.9534912109375,-5.06591796875,21.6064453125,-2.8076171875
1777642753.417993,-0.139404296875,0.345458984375,0.9615478515625,-2.0751953125,13.00048828125,-5.92041015625
1777642753.6042469,-0.1170654296875,0.3646240234375,0.96875,1.0986328125,4.33349609375,-6.591796875
1777642753.6042469,-0.1226806640625,0.3643798828125,0.9620361328125,3.60107421875,-0.18310546875,-5.0048828125
1777642753.6042469,-0.13232421875,0.3592529296875,0.9454345703125,4.0283203125,-1.3427734375,-3.11279296875
1777642753.6042469,-0.123779296875,0.362060546875,0.928955078125,2.74658203125,-1.03759765625,-1.220703125
1777642753.6042469,-0.1204833984375,0.355712890625,0.9228515625,4.2724609375,-1.89208984375,-0.67138671875
1777642753.6042469,-0.139404296875,0.340576171875,0.9249267578125,5.4931640625,-4.638671875,-1.28173828125
1777642753.6042469,-0.1585693359375,0.3316650390625,0.927001953125,5.9814453125,-6.53076171875,-1.64794921875
1777642753.6042469,-0.1710205078125,0.325439453125,0.9290771484375,5.7373046875,-5.0048828125,-1.77001953125
1777642753.6042469,-0.17236328125,0.3262939453125,0.927978515625,4.69970703125,-2.74658203125,-1.46484375
1777642753.6042469,-0.1641845703125,0.331787109375,0.9219970703125,3.662109375,-2.01416015625,-1.64794921875
1777642753.6042469,-0.1597900390625,0.339599609375,0.9127197265625,3.90625,-2.86865234375,-2.0751953125
1777642753.6042469,-0.1568603515625,0.34814453125,0.9124755859375,5.79833984375,-4.150390625,-1.8310546875
1777642753.6042469,-0.1544189453125,0.349365234375,0.9268798828125,7.2021484375,-5.0048828125,-1.52587890625
1777642753.6042469,-0.15576171875,0.347900390625,0.94580078125,7.14111328125,-5.4931640625,-1.28173828125
1777642753.6042469,-0.1566162109375,0.3460693359375,0.9661865234375,6.16455078125,-4.21142578125,-0.48828125
1777642753.6042469,-0.156982421875,0.3450927734375,0.977783203125,3.96728515625,-0.9765625,0.1220703125
1777642753.6042469,-0.16455078125,0.342041015625,0.973876953125,1.5869140625,2.44140625,0.3662109375
1777642753.6042469,-0.168701171875,0.3402099609375,0.9644775390625,0.1220703125,3.173828125,-0.54931640625
1777642753.6042469,-0.1636962890625,0.3438720703125,0.95361328125,-0.42724609375,2.5634765625,-1.15966796875
1777642753.6042469,-0.15869140625,0.346923828125,0.9403076171875,-1.0986328125,2.13623046875,-1.3427734375
1777642753.8296342,-0.156494140625,0.3455810546875,0.9261474609375,-1.28173828125,2.3193359375,-0.8544921875
1777642753.8296342,-0.1536865234375,0.342041015625,0.912109375,-0.06103515625,0.9765625,-0.732421875
1777642753.8296342,-0.1563720703125,0.337646484375,0.904052734375,1.953125,-2.13623046875,-1.0986328125
1777642753.8296342,-0.1644287109375,0.3345947265625,0.9056396484375,4.08935546875,-3.2958984375,-0.8544921875
1777642753.8296342,-0.166259765625,0.33544921875,0.914306640625,4.57763671875,-2.5634765625,-0.42724609375
1777642753.8296342,-0.1636962890625,0.3408203125,0.9227294921875,3.7841796875,-0.9765625,-0.1220703125
1777642753.8296342,-0.1627197265625,0.3489990234375,0.9256591796875,3.84521484375,0.1220703125,0.3662109375
1777642753.8296342,-0.1597900390625,0.3541259765625,0.927978515625,3.84521484375,1.0986328125,0.732421875
1777642753.8296342,-0.156005859375,0.35400390625,0.929443359375,3.662109375,1.3427734375,0.244140625
1777642753.8296342,-0.1573486328125,0.35107421875,0.9327392578125,3.96728515625,-0.48828125,-0.91552734375
1777642753.8296342,-0.1572265625,0.34912109375,0.9403076171875,4.08935546875,-1.15966796875,-1.0986328125
1777642753.8296342,-0.1531982421875,0.3485107421875,0.9449462890625,2.62451171875,1.220703125,-0.42724609375
1777642753.8296342,-0.1495361328125,0.350341796875,0.9443359375,1.03759765625,3.84521484375,0.1220703125
1777642753.8296342,-0.146484375,0.3551025390625,0.93994140625,1.28173828125,3.662109375,0.42724609375
1777642753.8296342,-0.148193359375,0.356689453125,0.934814453125,2.38037109375,2.01416015625,0.67138671875
1777642753.8296342,-0.1572265625,0.353271484375,0.93408203125,3.47900390625,0.67138671875,0.91552734375
1777642753.8296342,-0.16650390625,0.349365234375,0.94091796875,3.5400390625,-0.30517578125,1.0986328125
1777642753.8296342,-0.1732177734375,0.34423828125,0.9486083984375,3.0517578125,0.48828125,1.40380859375
1777642753.8296342,-0.1708984375,0.3436279296875,0.9501953125,2.50244140625,2.3193359375,1.77001953125
1777642753.8296342,-0.16357421875,0.349365234375,0.941650390625,1.40380859375,1.3427734375,0.67138671875
1777642753.987601,-0.16748046875,0.3511962890625,0.9349365234375,1.77001953125,-2.0751953125,-0.79345703125
1777642753.987601,-0.17333984375,0.3485107421875,0.9415283203125,1.28173828125,-2.8076171875,-1.52587890625
1777642753.987601,-0.167724609375,0.350341796875,0.948974609375,-1.15966796875,-0.6103515625,-1.64794921875
1777642753.987601,-0.1590576171875,0.356689453125,0.9464111328125,-3.23486328125,0.91552734375,-1.40380859375
1777642753.987601,-0.15869140625,0.3609619140625,0.932861328125,-3.90625,0.48828125,-1.40380859375
1777642753.987601,-0.156982421875,0.3648681640625,0.92041015625,-3.47900390625,-1.953125,-1.52587890625
1777642753.987601,-0.150146484375,0.3668212890625,0.9183349609375,-2.13623046875,-5.06591796875,-1.03759765625
1777642753.987601,-0.14892578125,0.3621826171875,0.9244384765625,-0.8544921875,-5.9814453125,-0.1220703125
1777642753.987601,-0.153564453125,0.35302734375,0.9317626953125,-0.54931640625,-5.7373046875,0.30517578125
1777642753.987601,-0.1552734375,0.3482666015625,0.933837890625,-0.18310546875,-6.103515625,0.0
1777642753.987601,-0.152587890625,0.348388671875,0.932373046875,0.18310546875,-5.9814453125,-0.42724609375
1777642753.987601,-0.1575927734375,0.3438720703125,0.927734375,0.18310546875,-4.8828125,-0.79345703125
1777642753.987601,-0.1614990234375,0.341796875,0.9202880859375,0.8544921875,-2.685546875,-0.48828125
1777642753.987601,-0.161376953125,0.3370361328125,0.9263916015625,1.89208984375,0.0,0.18310546875
1777642753.987601,-0.1546630859375,0.33642578125,0.9356689453125,1.28173828125,1.46484375,0.6103515625
1777642753.987601,-0.1488037109375,0.34375,0.9334716796875,2.01416015625,2.01416015625,1.28173828125
1777642753.987601,-0.1651611328125,0.3402099609375,0.927001953125,2.38037109375,2.01416015625,1.220703125
1777642753.987601,-0.1834716796875,0.330322265625,0.9219970703125,3.2958984375,-0.42724609375,-0.30517578125
1777642753.987601,-0.188232421875,0.32421875,0.929443359375,5.126953125,-3.35693359375,-2.86865234375
1777642753.987601,-0.1800537109375,0.333984375,0.9365234375,3.90625,-2.74658203125,-4.150390625
1777642754.1345994,-0.16015625,0.353759765625,0.9329833984375,1.220703125,1.953125,-2.685546875
1777642754.1345994,-0.1458740234375,0.365234375,0.9234619140625,-0.3662109375,4.8828125,-1.15966796875
1777642754.1345994,-0.147216796875,0.3665771484375,0.9193115234375,1.15966796875,1.40380859375,-1.03759765625
1777642754.1345994,-0.145263671875,0.3653564453125,0.9290771484375,3.23486328125,-4.08935546875,-1.0986328125
1777642754.1345994,-0.1328125,0.3673095703125,0.940673828125,3.0517578125,-4.7607421875,-0.1220703125
1777642754.1345994,-0.131103515625,0.368896484375,0.938720703125,1.89208984375,-2.3193359375,1.40380859375
1777642754.1345994,-0.143798828125,0.36376953125,0.932861328125,2.38037109375,-2.0751953125,2.38037109375
1777642754.1345994,-0.16015625,0.35205078125,0.9376220703125,2.74658203125,-3.173828125,2.3193359375
1777642754.1345994,-0.1763916015625,0.3394775390625,0.94287109375,2.44140625,-2.74658203125,1.220703125
1777642754.1345994,-0.1893310546875,0.3309326171875,0.942626953125,0.67138671875,0.42724609375,0.30517578125
1777642754.1345994,-0.1875,0.332275390625,0.932373046875,-1.40380859375,4.39453125,-0.18310546875
1777642754.1345994,-0.1614990234375,0.3524169921875,0.9080810546875,-1.0986328125,4.21142578125,-0.9765625
1777642754.1345994,-0.1441650390625,0.36328125,0.8990478515625,2.0751953125,1.15966796875,-1.03759765625
1777642754.1345994,-0.145751953125,0.3568115234375,0.90283203125,3.173828125,-0.1220703125,-0.244140625
1777642754.1345994,-0.1380615234375,0.36328125,0.8968505859375,4.0283203125,-0.06103515625,0.9765625
1777642754.1345994,-0.131591796875,0.3726806640625,0.8934326171875,5.67626953125,0.1220703125,2.0751953125
1777642754.1345994,-0.137939453125,0.3719482421875,0.8955078125,6.8359375,0.30517578125,2.86865234375
1777642754.1345994,-0.1407470703125,0.3734130859375,0.8980712890625,7.080078125,0.9765625,3.47900390625
1777642754.1345994,-0.1517333984375,0.36962890625,0.9051513671875,8.11767578125,2.0751953125,3.2958984375
1777642754.1345994,-0.1741943359375,0.349609375,0.9237060546875,7.9345703125,2.5634765625,2.50244140625
1777642754.2821257,-0.1771240234375,0.3399658203125,0.94677734375,5.7373046875,3.173828125,1.64794921875
1777642754.2821257,-0.1683349609375,0.34716796875,0.95849609375,3.5400390625,4.33349609375,1.03759765625
1777642754.2821257,-0.1790771484375,0.3472900390625,0.9671630859375,4.2724609375,3.84521484375,0.244140625
1777642754.2821257,-0.1898193359375,0.343994140625,0.984619140625,4.82177734375,0.3662109375,-0.91552734375
1777642754.2821257,-0.1864013671875,0.3463134765625,0.99609375,3.47900390625,-1.64794921875,-2.44140625
1777642754.2821257,-0.180419921875,0.351318359375,0.989990234375,1.5869140625,-0.9765625,-2.9296875
1777642754.2821257,-0.1661376953125,0.362060546875,0.96728515625,-0.54931640625,-0.244140625,-2.86865234375
1777642754.2821257,-0.14501953125,0.3758544921875,0.938232421875,-1.0986328125,-1.708984375,-2.8076171875
1777642754.2821257,-0.1307373046875,0.384521484375,0.9178466796875,-0.42724609375,-4.33349609375,-2.38037109375
1777642754.2821257,-0.1298828125,0.38671875,0.9044189453125,0.732421875,-5.37109375,-1.28173828125
1777642754.4403565,-0.1326904296875,0.3858642578125,0.895751953125,1.953125,-6.16455078125,-0.18310546875
1777642754.4403565,-0.1328125,0.3858642578125,0.893310546875,2.99072265625,-6.9580078125,0.732421875
1777642754.4403565,-0.1378173828125,0.3836669921875,0.894775390625,3.84521484375,-6.89697265625,1.40380859375
1777642754.4403565,-0.1485595703125,0.3756103515625,0.905029296875,4.45556640625,-6.4697265625,1.77001953125
1777642754.4403565,-0.1617431640625,0.3651123046875,0.9217529296875,3.96728515625,-5.37109375,1.52587890625
1777642754.4403565,-0.178466796875,0.3548583984375,0.9371337890625,3.60107421875,-3.96728515625,1.15966796875
1777642754.4403565,-0.18310546875,0.353271484375,0.9461669921875,2.685546875,-2.62451171875,0.8544921875
1777642754.4403565,-0.1796875,0.356689453125,0.947509765625,1.15966796875,-0.67138671875,0.67138671875
1777642754.4403565,-0.1802978515625,0.35400390625,0.9464111328125,-0.244140625,1.220703125,0.6103515625
1777642754.4403565,-0.1768798828125,0.349853515625,0.9442138671875,-1.64794921875,2.25830078125,0.0
1777642754.5937521,-0.1658935546875,0.3511962890625,0.93994140625,-2.197265625,2.38037109375,-0.67138671875
1777642754.5937521,-0.15478515625,0.3580322265625,0.9273681640625,-2.197265625,2.197265625,-0.8544921875
1777642754.5937521,-0.1497802734375,0.3624267578125,0.9072265625,-1.03759765625,1.52587890625,-0.8544921875
1777642754.5937521,-0.1453857421875,0.3638916015625,0.8922119140625,1.03759765625,-0.48828125,-0.9765625
1777642754.5937521,-0.1407470703125,0.3660888671875,0.8907470703125,3.0517578125,-2.74658203125,-1.0986328125
1777642754.5937521,-0.1470947265625,0.3619384765625,0.8974609375,4.33349609375,-3.11279296875,-0.9765625
1777642754.5937521,-0.166259765625,0.3526611328125,0.9058837890625,4.69970703125,-2.3193359375,-1.3427734375
1777642754.5937521,-0.181396484375,0.348876953125,0.917724609375,4.2724609375,-1.220703125,-2.197265625
1777642754.5937521,-0.1783447265625,0.354248046875,0.93115234375,3.173828125,0.732421875,-2.99072265625
1777642754.5937521,-0.1632080078125,0.365966796875,0.93896484375,1.77001953125,2.86865234375,-3.35693359375
1777642754.5937521,-0.152099609375,0.3779296875,0.9486083984375,0.91552734375,3.96728515625,-2.685546875
1777642754.5937521,-0.1563720703125,0.3966064453125,0.9815673828125,0.0,2.685546875,-1.708984375
1777642754.5937521,-0.2000732421875,0.42919921875,1.0753173828125,-1.46484375,-1.03759765625,0.732421875
1777642754.5937521,-0.272705078125,0.470703125,1.303955078125,-5.859375,-8.7890625,6.65283203125
1777642754.5937521,-0.330078125,0.5218505859375,1.700439453125,-13.916015625,-23.0712890625,11.65771484375
1777642754.5937521,-0.338134765625,0.56640625,2.164306640625,-37.04833984375,-46.9970703125,15.5029296875
1777642754.5937521,-0.2930908203125,0.6190185546875,2.5533447265625,-80.9326171875,-72.08251953125,20.93505859375
1777642754.5937521,-0.1199951171875,0.734375,2.6845703125,-147.4609375,-78.2470703125,35.2783203125
1777642754.5937521,0.16943359375,0.8477783203125,2.4603271484375,-191.71142578125,-45.7763671875,47.18017578125
1777642754.5937521,0.344970703125,0.913818359375,1.873779296875,-259.27734375,-34.72900390625,43.45703125
1777642754.7469645,0.405029296875,0.970703125,1.030517578125,-274.5361328125,-42.66357421875,45.22705078125
1777642754.7469645,0.4437255859375,0.924072265625,0.2337646484375,-237.4267578125,-62.92724609375,56.45751953125
1777642754.7469645,0.303466796875,0.6640625,-0.2525634765625,-172.54638671875,-87.40234375,62.5
1777642754.7469645,0.008544921875,0.283935546875,-0.3922119140625,-111.328125,-98.44970703125,61.279296875
1777642754.7469645,-0.160888671875,0.002685546875,-0.3284912109375,-77.63671875,-87.890625,53.8330078125
1777642754.7469645,-0.192138671875,-0.1246337890625,-0.15478515625,-62.07275390625,-53.466796875,43.39599609375
1777642754.7469645,-0.2069091796875,-0.169189453125,0.078857421875,-54.99267578125,-17.333984375,33.14208984375
1777642754.7469645,-0.1986083984375,-0.1632080078125,0.3291015625,-52.67333984375,5.615234375,24.23095703125
1777642754.7469645,-0.1943359375,-0.1414794921875,0.5673828125,-52.24609375,16.9677734375,19.22607421875
1777642754.7469645,-0.2239990234375,-0.1456298828125,0.75390625,-49.37744140625,21.54541015625,17.2119140625
1777642754.7469645,-0.2728271484375,-0.180419921875,0.86376953125,-42.17529296875,24.23095703125,16.357421875
1777642754.7469645,-0.3167724609375,-0.2181396484375,0.907958984375,-32.28759765625,25.20751953125,15.80810546875
1777642754.7469645,-0.333251953125,-0.2403564453125,0.9058837890625,-20.5078125,18.9208984375,11.962890625
1777642754.7469645,-0.3375244140625,-0.2440185546875,0.8763427734375,-4.0283203125,3.11279296875,4.45556640625
1777642754.7469645,-0.34716796875,-0.242431640625,0.85107421875,11.16943359375,-9.33837890625,-2.01416015625
1777642754.7469645,-0.3350830078125,-0.2252197265625,0.89111328125,20.3857421875,-9.09423828125,-7.38525390625
1777642754.7469645,-0.2674560546875,-0.172119140625,1.0267333984375,20.81298828125,-4.0283203125,-12.75634765625
1777642754.7469645,-0.138671875,-0.088134765625,1.1727294921875,11.5966796875,0.48828125,-15.68603515625
1777642754.7469645,0.030517578125,0.0050048828125,1.2396240234375,0.42724609375,-1.52587890625,-15.31982421875
1777642754.7469645,0.1575927734375,0.0751953125,1.2188720703125,-8.85009765625,-9.6435546875,-12.39013671875
1777642754.8980086,0.2069091796875,0.102783203125,1.1427001953125,-11.04736328125,-19.10400390625,-6.34765625
1777642754.8980086,0.210693359375,0.09619140625,1.0484619140625,-9.94873046875,-28.25927734375,-1.40380859375
1777642754.8980086,0.1817626953125,0.0736083984375,0.9573974609375,-6.9580078125,-34.72900390625,1.40380859375
1777642754.8980086,0.1463623046875,0.0538330078125,0.8753662109375,-3.2958984375,-36.2548828125,2.8076171875
1777642754.8980086,0.11181640625,0.033203125,0.811767578125,1.46484375,-33.203125,2.0751953125
1777642754.8980086,0.0516357421875,-0.0093994140625,0.7724609375,7.14111328125,-27.9541015625,-2.13623046875
1777642754.8980086,-0.0311279296875,-0.057861328125,0.78076171875,14.5263671875,-27.03857421875,-9.58251953125
1777642754.8980086,-0.0848388671875,-0.0745849609375,0.8548583984375,20.56884765625,-31.1279296875,-16.66259765625
1777642754.8980086,-0.078857421875,-0.0382080078125,0.95849609375,20.751953125,-25.390625,-18.37158203125
1777642754.8980086,-0.03515625,0.0133056640625,1.0748291015625,18.1884765625,-7.01904296875,-14.09912109375
1777642755.0645044,0.0238037109375,0.03662109375,1.177001953125,9.27734375,3.7841796875,-8.72802734375
1777642755.0645044,0.0782470703125,0.0523681640625,1.1851806640625,2.5634765625,3.60107421875,-5.55419921875
1777642755.0655031,0.0745849609375,0.0574951171875,1.10498046875,0.18310546875,-2.9296875,-3.7841796875
1777642755.0655031,0.0341796875,0.0450439453125,1.0205078125,2.50244140625,-8.48388671875,-2.38037109375
1777642755.0655031,0.0257568359375,0.0423583984375,0.9569091796875,4.8828125,-9.46044921875,-2.0751953125
1777642755.0655031,0.0379638671875,0.044677734375,0.918701171875,9.27734375,-8.30078125,-2.8076171875
1777642755.0655031,0.05029296875,0.0484619140625,0.91064453125,12.451171875,-6.591796875,-4.0283203125
1777642755.0655031,0.0645751953125,0.05859375,0.92919921875,13.671875,-5.37109375,-5.2490234375
1777642755.0655031,0.0703125,0.0628662109375,0.9727783203125,11.8408203125,-0.48828125,-5.43212890625
1777642755.0655031,0.0648193359375,0.0634765625,1.024658203125,7.87353515625,5.9814453125,-4.638671875
1777642755.0655031,0.079833984375,0.0706787109375,1.083740234375,3.96728515625,7.26318359375,-3.47900390625
1777642755.0655031,0.1141357421875,0.0838623046875,1.130126953125,-0.3662109375,5.2490234375,-1.5869140625
1777642755.0655031,0.1212158203125,0.0869140625,1.1285400390625,-3.84521484375,4.0283203125,1.64794921875
1777642755.0655031,0.0955810546875,0.0679931640625,1.089111328125,-4.2724609375,2.74658203125,4.08935546875
1777642755.0655031,0.065673828125,0.042236328125,1.0360107421875,-2.74658203125,1.5869140625,5.31005859375
1777642755.0655031,0.03466796875,0.0194091796875,0.9827880859375,0.1220703125,-0.6103515625,4.57763671875
1777642755.0655031,0.0101318359375,0.0015869140625,0.956298828125,3.41796875,-4.150390625,2.9296875
1777642755.0655031,0.005126953125,-0.003173828125,0.9541015625,4.82177734375,-2.01416015625,1.89208984375
1777642755.0655031,0.0050048828125,0.0,0.963134765625,4.33349609375,3.90625,1.8310546875
1777642755.0655031,0.009765625,0.00439453125,0.977294921875,2.44140625,8.7890625,1.64794921875
1777642755.2335477,0.01513671875,0.01123046875,0.985595703125,1.46484375,9.82666015625,0.732421875
1777642755.2335477,0.024169921875,0.0228271484375,1.0040283203125,2.44140625,6.4697265625,0.1220703125
1777642755.2335477,0.0313720703125,0.0272216796875,1.0418701171875,2.8076171875,2.25830078125,0.0
1777642755.2335477,0.0257568359375,0.0224609375,1.06982421875,1.40380859375,0.6103515625,0.3662109375
1777642755.2335477,0.01806640625,0.01708984375,1.06396484375,-0.30517578125,0.91552734375,0.48828125
1777642755.2335477,0.012939453125,0.0103759765625,1.03662109375,-0.8544921875,0.6103515625,-0.18310546875
1777642755.2335477,0.01953125,0.01220703125,1.0006103515625,-0.3662109375,-1.40380859375,-1.52587890625
1777642755.2335477,0.0264892578125,0.0198974609375,0.9671630859375,2.5634765625,-0.3662109375,-1.8310546875
1777642755.2335477,0.0306396484375,0.0228271484375,0.9459228515625,5.615234375,0.244140625,-2.0751953125
1777642755.2335477,0.032470703125,0.0235595703125,0.9384765625,8.1787109375,0.30517578125,-2.25830078125
1777642755.3837807,0.0242919921875,0.0206298828125,0.94921875,10.3759765625,0.6103515625,-2.3193359375
1777642755.3837807,0.0120849609375,0.018798828125,0.9805908203125,10.92529296875,1.46484375,-2.8076171875
1777642755.3837807,0.009033203125,0.0262451171875,1.032958984375,10.009765625,3.35693359375,-2.9296875
1777642755.3837807,0.028076171875,0.0391845703125,1.0797119140625,6.2255859375,4.150390625,-3.173828125
1777642755.3837807,0.048583984375,0.050537109375,1.0908203125,3.11279296875,3.11279296875,-3.23486328125
1777642755.3837807,0.051513671875,0.052490234375,1.074951171875,0.8544921875,0.6103515625,-2.9296875
1777642755.3837807,0.04296875,0.04541015625,1.0526123046875,0.0,-0.06103515625,-2.5634765625
1777642755.3837807,0.0303955078125,0.0394287109375,1.033935546875,-0.6103515625,1.03759765625,-2.44140625
1777642755.3837807,0.0267333984375,0.0433349609375,1.0201416015625,-1.3427734375,3.662109375,-2.3193359375
1777642755.3837807,0.0391845703125,0.0546875,1.000244140625,-2.74658203125,7.62939453125,-1.708984375
1777642755.3837807,0.053466796875,0.064697265625,0.971435546875,-2.50244140625,6.89697265625,-1.52587890625
1777642755.3837807,0.053466796875,0.0643310546875,0.954833984375,1.5869140625,2.38037109375,-1.0986328125
1777642755.3837807,0.03369140625,0.048583984375,0.965576171875,5.4931640625,0.9765625,-0.54931640625
1777642755.3837807,0.01416015625,0.0328369140625,0.990966796875,6.9580078125,-1.3427734375,-1.46484375
1777642755.3837807,0.0152587890625,0.0311279296875,1.0159912109375,7.32421875,-2.8076171875,-2.44140625
1777642755.3837807,0.0194091796875,0.0333251953125,1.0286865234375,5.859375,0.06103515625,-2.74658203125
1777642755.3837807,0.0118408203125,0.031494140625,1.0267333984375,3.2958984375,3.41796875,-3.0517578125
1777642755.3837807,0.0013427734375,0.0262451171875,1.01708984375,1.52587890625,5.7373046875,-3.41796875
1777642755.3837807,-0.0091552734375,0.0205078125,0.9954833984375,0.9765625,7.32421875,-4.45556640625
1777642755.3837807,-0.023681640625,0.0189208984375,0.9739990234375,2.3193359375,7.26318359375,-5.92041015625
1777642755.5374918,-0.0189208984375,0.0244140625,0.9757080078125,4.2724609375,4.08935546875,-7.32421875
1777642755.5374918,0.004638671875,0.03369140625,0.9967041015625,5.126953125,2.50244140625,-7.62939453125
1777642755.5374918,0.0108642578125,0.04150390625,1.014404296875,5.2490234375,2.0751953125,-7.2021484375
1777642755.5374918,0.0052490234375,0.0457763671875,1.03076171875,5.18798828125,1.64794921875,-6.40869140625
1777642755.5374918,0.0076904296875,0.04833984375,1.05078125,3.662109375,3.7841796875,-5.2490234375
1777642755.5374918,0.013427734375,0.053466796875,1.0623779296875,1.28173828125,8.4228515625,-3.90625
1777642755.5374918,0.03466796875,0.0682373046875,1.0509033203125,-0.79345703125,10.25390625,-3.11279296875
1777642755.5374918,0.0706787109375,0.091064453125,1.02197265625,0.48828125,6.2255859375,-2.197265625
1777642755.5374918,0.09033203125,0.1031494140625,1.003662109375,3.173828125,-0.54931640625,-0.1220703125
1777642755.5374918,0.0849609375,0.0950927734375,1.01025390625,5.37109375,-5.126953125,2.13623046875
1777642755.5374918,0.06494140625,0.0809326171875,1.0225830078125,5.4931640625,-5.43212890625,3.60107421875
1777642755.5374918,0.04150390625,0.0654296875,1.023681640625,4.5166015625,-3.662109375,4.45556640625
1777642755.5374918,0.014404296875,0.0465087890625,1.0167236328125,3.5400390625,-2.0751953125,4.0283203125
1777642755.5374918,-0.0167236328125,0.02734375,1.010009765625,2.62451171875,-0.42724609375,2.44140625
1777642755.5374918,-0.0362548828125,0.0150146484375,1.0079345703125,1.46484375,2.197265625,0.54931640625
1777642755.5374918,-0.0355224609375,0.0186767578125,1.00146484375,0.79345703125,4.8828125,-1.220703125
1777642755.5374918,-0.0233154296875,0.0321044921875,0.99853515625,1.0986328125,5.0048828125,-2.62451171875
1777642755.5374918,-0.01318359375,0.0439453125,1.0106201171875,1.52587890625,3.5400390625,-2.99072265625
1777642755.5374918,-0.0054931640625,0.05078125,1.0306396484375,1.52587890625,1.64794921875,-2.74658203125
1777642755.5374918,0.00439453125,0.0550537109375,1.042724609375,0.6103515625,0.91552734375,-2.3193359375
1777642755.720222,0.015625,0.060791015625,1.03271484375,-0.244140625,-0.67138671875,-2.25830078125
1777642755.720222,0.0316162109375,0.070556640625,1.0078125,0.18310546875,-3.2958984375,-2.0751953125
1777642755.720222,0.0406494140625,0.0780029296875,0.982666015625,1.8310546875,-4.69970703125,-1.28173828125
1777642755.720222,0.033203125,0.0743408203125,0.9754638671875,3.72314453125,-5.0048828125,-0.42724609375
1777642755.720222,0.0228271484375,0.067626953125,0.982421875,4.82177734375,-4.57763671875,-0.06103515625
1777642755.720222,0.0167236328125,0.065673828125,0.9921875,5.2490234375,-2.8076171875,0.3662109375
1777642755.720222,0.00634765625,0.0595703125,1.0074462890625,4.57763671875,0.48828125,0.732421875
1777642755.720222,-0.00390625,0.051513671875,1.0283203125,3.662109375,3.173828125,0.6103515625
1777642755.720222,0.0009765625,0.0528564453125,1.04296875,2.5634765625,3.60107421875,0.06103515625
1777642755.720222,0.007568359375,0.056396484375,1.0439453125,2.01416015625,2.13623046875,-0.42724609375
1777642755.720222,-0.0001220703125,0.0506591796875,1.041015625,1.220703125,1.28173828125,-0.6103515625
1777642755.720222,-0.0087890625,0.0450439453125,1.03369140625,0.244140625,2.13623046875,-0.732421875
1777642755.720222,-0.0013427734375,0.051513671875,1.0147705078125,-0.8544921875,3.2958984375,-0.79345703125
1777642755.720222,0.0146484375,0.0626220703125,0.99072265625,-1.220703125,2.5634765625,-1.3427734375
1777642755.720222,0.019775390625,0.0648193359375,0.977783203125,-0.18310546875,0.8544921875,-1.5869140625
1777642755.720222,0.0115966796875,0.058349609375,0.978515625,0.54931640625,0.8544921875,-1.953125
1777642755.720222,-0.002685546875,0.0511474609375,0.9849853515625,0.30517578125,2.74658203125,-2.62451171875
1777642755.720222,-0.016357421875,0.048095703125,0.9967041015625,-0.732421875,7.568359375,-2.685546875
1777642755.720222,-0.0081787109375,0.05419921875,1.0126953125,-2.0751953125,12.3291015625,-1.52587890625
1777642755.720222,0.01708984375,0.0692138671875,1.0140380859375,-2.44140625,9.70458984375,-1.40380859375
1777642755.874778,0.03076171875,0.0791015625,1.0093994140625,-0.1220703125,2.5634765625,-1.220703125
1777642755.874778,0.027587890625,0.0736083984375,1.0185546875,1.8310546875,-1.89208984375,-0.30517578125
1777642755.874778,0.0167236328125,0.0621337890625,1.0294189453125,2.99072265625,-2.74658203125,0.54931640625
1777642755.874778,0.013671875,0.0572509765625,1.028076171875,2.5634765625,-1.15966796875,1.0986328125
1777642755.874778,0.0167236328125,0.05810546875,1.01708984375,2.01416015625,0.18310546875,1.220703125
1777642755.874778,0.019287109375,0.059326171875,1.0059814453125,2.86865234375,-1.64794921875,0.9765625
1777642755.874778,0.015380859375,0.0565185546875,1.00537109375,4.21142578125,-4.5166015625,0.732421875
1777642755.874778,-0.001708984375,0.049072265625,1.0126953125,4.8828125,-4.69970703125,0.6103515625
1777642755.874778,-0.0201416015625,0.0439453125,1.0181884765625,4.39453125,-4.0283203125,-0.1220703125
1777642755.874778,-0.02783203125,0.043701171875,1.0233154296875,3.47900390625,-3.5400390625,-1.28173828125
1777642756.0285532,-0.0264892578125,0.0484619140625,1.0225830078125,2.0751953125,-1.64794921875,-2.0751953125
1777642756.0285532,-0.0235595703125,0.0537109375,1.0157470703125,0.67138671875,1.5869140625,-2.0751953125
1777642756.0285532,-0.01416015625,0.0584716796875,1.00830078125,-0.48828125,4.08935546875,-1.89208984375
1777642756.0285532,0.0001220703125,0.066650390625,0.9993896484375,-0.48828125,3.96728515625,-1.5869140625
1777642756.0285532,0.0062255859375,0.0706787109375,0.9947509765625,0.732421875,2.9296875,-0.79345703125
1777642756.0285532,0.00634765625,0.0684814453125,1.00048828125,2.0751953125,0.732421875,-0.3662109375
1777642756.0285532,0.008544921875,0.0675048828125,1.0120849609375,3.11279296875,-1.220703125,-0.18310546875
1777642756.0285532,0.011962890625,0.0694580078125,1.0164794921875,2.99072265625,-2.44140625,-0.1220703125
1777642756.0285532,0.0111083984375,0.0703125,1.01123046875,2.62451171875,-2.62451171875,0.0
1777642756.0285532,0.0047607421875,0.0703125,1.0040283203125,2.8076171875,-3.0517578125,-0.3662109375
1777642756.0285532,-0.0084228515625,0.06494140625,1.0059814453125,3.0517578125,-2.8076171875,-0.732421875
1777642756.0285532,-0.018310546875,0.0565185546875,1.0224609375,3.47900390625,-2.197265625,-1.3427734375
1777642756.0285532,-0.013671875,0.0565185546875,1.037109375,2.3193359375,-0.9765625,-2.01416015625
1777642756.0285532,-0.0047607421875,0.063232421875,1.0394287109375,0.67138671875,2.197265625,-1.8310546875
1777642756.0285532,0.0101318359375,0.0703125,1.0357666015625,-0.48828125,3.84521484375,-1.220703125
1777642756.0285532,0.025146484375,0.07568359375,1.021484375,-1.0986328125,3.173828125,-0.732421875
1777642756.0285532,0.02490234375,0.0765380859375,1.0001220703125,-0.06103515625,1.64794921875,0.0
1777642756.0285532,0.0126953125,0.0718994140625,0.990234375,1.64794921875,2.44140625,1.03759765625
1777642756.0285532,0.0054931640625,0.0653076171875,0.9962158203125,2.5634765625,3.47900390625,1.46484375
1777642756.0285532,0.0089111328125,0.0616455078125,1.009033203125,2.86865234375,1.77001953125,0.79345703125
1777642756.1759553,0.009765625,0.0623779296875,1.0177001953125,2.44140625,-0.244140625,-0.1220703125
1777642756.1759553,-0.0013427734375,0.059326171875,1.02197265625,1.77001953125,-1.3427734375,-0.79345703125
1777642756.1759553,-0.0120849609375,0.053466796875,1.0272216796875,0.732421875,-1.28173828125,-1.03759765625
1777642756.1759553,-0.0096435546875,0.053955078125,1.0203857421875,-0.8544921875,0.732421875,-0.8544921875
1777642756.1759553,-0.005859375,0.0546875,0.9996337890625,-1.77001953125,3.2958984375,-0.48828125
1777642756.1759553,-0.005859375,0.052734375,0.9757080078125,-1.40380859375,4.45556640625,-0.67138671875
1777642756.1759553,-0.0062255859375,0.052978515625,0.95849609375,0.18310546875,5.67626953125,-0.79345703125
1777642756.1759553,-0.01123046875,0.0523681640625,0.950927734375,1.708984375,7.01904296875,-1.0986328125
1777642756.1759553,-0.02294921875,0.052734375,0.954345703125,3.72314453125,7.01904296875,-1.5869140625
1777642756.1759553,-0.0277099609375,0.057861328125,0.982421875,6.2255859375,4.69970703125,-2.50244140625
1777642756.1759553,-0.0206298828125,0.066650390625,1.02197265625,7.38525390625,0.91552734375,-3.5400390625
1777642756.1759553,-0.0113525390625,0.075439453125,1.0426025390625,6.2255859375,-0.1220703125,-3.60107421875
1777642756.1759553,-0.007568359375,0.0810546875,1.0384521484375,4.8828125,0.54931640625,-3.2958984375
1777642756.1759553,-0.0001220703125,0.084716796875,1.0244140625,3.7841796875,1.03759765625,-2.62451171875
1777642756.1759553,0.008544921875,0.0897216796875,1.0113525390625,3.5400390625,1.77001953125,-1.77001953125
1777642756.1759553,-0.00048828125,0.089599609375,1.00927734375,4.08935546875,1.3427734375,-1.0986328125
1777642756.1759553,-0.014892578125,0.082275390625,1.0233154296875,4.39453125,1.220703125,-0.79345703125
1777642756.1759553,-0.0205078125,0.07666015625,1.04296875,3.41796875,2.25830078125,-0.6103515625
1777642756.1759553,-0.0157470703125,0.075927734375,1.0489501953125,1.5869140625,4.150390625,-0.42724609375
1777642756.1759553,-0.0037841796875,0.078857421875,1.0355224609375,-0.1220703125,5.43212890625,-0.06103515625
1777642756.3259408,0.00439453125,0.081298828125,1.0164794921875,-0.79345703125,5.06591796875,-0.06103515625
1777642756.3259408,0.002197265625,0.0806884765625,1.0059814453125,0.18310546875,2.685546875,-0.1220703125
1777642756.3259408,-0.0029296875,0.0767822265625,1.0062255859375,1.46484375,0.48828125,-0.18310546875
1777642756.3259408,-0.007568359375,0.0726318359375,1.003662109375,2.25830078125,-2.01416015625,-0.8544921875
1777642756.3259408,-0.015625,0.070068359375,0.9989013671875,2.86865234375,-3.11279296875,-1.3427734375
1777642756.3259408,-0.0234375,0.0693359375,1.0023193359375,3.11279296875,-2.38037109375,-1.64794921875
1777642756.3259408,-0.02392578125,0.0712890625,1.011962890625,2.50244140625,-0.244140625,-1.5869140625
1777642756.3259408,-0.0181884765625,0.074462890625,1.0191650390625,1.5869140625,1.28173828125,-1.52587890625
1777642756.3259408,-0.01708984375,0.07666015625,1.0191650390625,0.91552734375,2.01416015625,-1.40380859375
1777642756.3259408,-0.0194091796875,0.0792236328125,1.01416015625,0.67138671875,3.23486328125,-0.8544921875
1777642756.4883978,-0.0179443359375,0.0791015625,1.0152587890625,0.67138671875,4.39453125,-0.18310546875
1777642756.4883978,-0.010009765625,0.0784912109375,1.017822265625,0.06103515625,6.04248046875,0.6103515625
1777642756.4883978,-0.0074462890625,0.079833984375,1.00537109375,-0.06103515625,6.103515625,0.8544921875
1777642756.4883978,-0.0093994140625,0.0777587890625,0.9913330078125,0.9765625,3.47900390625,0.18310546875
1777642756.4883978,-0.018310546875,0.0718994140625,0.991943359375,2.8076171875,0.3662109375,-0.9765625
1777642756.4883978,-0.0325927734375,0.0677490234375,1.0057373046875,3.96728515625,-2.01416015625,-2.13623046875
1777642756.4883978,-0.041259765625,0.0670166015625,1.02294921875,3.0517578125,-2.13623046875,-2.99072265625
1777642756.4883978,-0.0458984375,0.066162109375,1.033203125,1.64794921875,-0.8544921875,-3.5400390625
1777642756.4883978,-0.036865234375,0.0738525390625,1.023681640625,0.54931640625,0.3662109375,-3.7841796875
1777642756.4883978,-0.01025390625,0.089111328125,0.9866943359375,0.8544921875,2.25830078125,-2.5634765625
1777642756.4883978,0.0203857421875,0.101806640625,0.93408203125,3.11279296875,1.708984375,-1.220703125
1777642756.4883978,0.0484619140625,0.117919921875,0.8701171875,8.11767578125,-1.77001953125,0.9765625
1777642756.4883978,0.0943603515625,0.136962890625,0.7698974609375,18.24951171875,-7.99560546875,4.57763671875
1777642756.4883978,0.132568359375,0.175537109375,0.6478271484375,35.33935546875,-16.6015625,10.92529296875
1777642756.4883978,0.1500244140625,0.207275390625,0.4752197265625,54.443359375,-29.541015625,20.08056640625
1777642756.4883978,0.13037109375,0.1846923828125,0.2841796875,83.80126953125,-41.50390625,26.9775390625
1777642756.4883978,0.0528564453125,0.1390380859375,0.1309814453125,113.46435546875,-40.46630859375,30.6396484375
1777642756.4883978,-0.026611328125,0.08740234375,0.0384521484375,141.9677734375,-21.42333984375,28.3203125
1777642756.4883978,-0.1160888671875,0.053955078125,0.06689453125,158.0810546875,13.36669921875,14.7705078125
1777642756.4883978,-0.260009765625,0.067138671875,0.2015380859375,167.29736328125,54.01611328125,-2.0751953125
1777642756.6471608,-0.4033203125,0.1290283203125,0.502685546875,171.44775390625,83.1298828125,-17.51708984375
1777642756.6471608,-0.4326171875,0.214111328125,0.9664306640625,168.9453125,98.81591796875,-27.03857421875
1777642756.6471608,-0.3798828125,0.330078125,1.4322509765625,158.14208984375,98.57177734375,-32.28759765625
1777642756.6471608,-0.350341796875,0.4019775390625,1.7713623046875,140.2587890625,80.9326171875,-36.865234375
1777642756.6471608,-0.2900390625,0.43505859375,1.9483642578125,116.455078125,55.11474609375,-34.48486328125
1777642756.6471608,-0.1627197265625,0.4952392578125,1.968017578125,89.17236328125,33.5693359375,-29.35791015625
1777642756.6471608,-0.0594482421875,0.5338134765625,1.84228515625,63.90380859375,14.7705078125,-26.91650390625
1777642756.6471608,-0.0057373046875,0.5576171875,1.6278076171875,42.8466796875,-1.708984375,-25.390625
1777642756.6471608,0.0455322265625,0.571533203125,1.3931884765625,27.83203125,-12.939453125,-23.37646484375
1777642756.6471608,0.0872802734375,0.5865478515625,1.1553955078125,19.53125,-20.751953125,-21.240234375
1777642756.8063588,0.0965576171875,0.58642578125,0.93798828125,17.578125,-24.59716796875,-18.12744140625
1777642756.8063588,0.092041015625,0.5648193359375,0.78369140625,21.484375,-22.5830078125,-15.13671875
1777642756.8063588,0.0799560546875,0.534423828125,0.7001953125,25.45166015625,-14.46533203125,-11.77978515625
1777642756.8063588,0.0091552734375,0.4791259765625,0.6773681640625,32.8369140625,1.77001953125,-9.58251953125
1777642756.8063588,-0.08056640625,0.4373779296875,0.6904296875,32.8369140625,15.44189453125,-9.58251953125
1777642756.8063588,-0.1275634765625,0.440185546875,0.75,35.70556640625,22.94921875,-9.8876953125
1777642756.8063588,-0.1864013671875,0.4620361328125,0.9302978515625,39.4287109375,22.76611328125,-11.04736328125
1777642756.8063588,-0.1468505859375,0.5281982421875,1.3106689453125,68.90869140625,-11.5966796875,-9.1552734375
1777642756.8063588,-0.0955810546875,0.541259765625,1.4989013671875,51.94091796875,-57.2509765625,-8.6669921875
1777642756.8063588,-0.1376953125,0.482177734375,1.2926025390625,-19.53125,-21.8505859375,-7.080078125
1777642756.8063588,-0.1739501953125,0.4573974609375,1.08203125,-29.60205078125,18.73779296875,-3.72314453125
1777642756.8063588,-0.1600341796875,0.44970703125,1.002197265625,-26.18408203125,22.4609375,-3.35693359375
1777642756.8063588,-0.07275390625,0.4652099609375,0.9251708984375,-24.59716796875,4.39453125,-5.7373046875
1777642756.8063588,-0.0203857421875,0.4913330078125,0.810546875,-17.7001953125,-7.8125,-6.89697265625
1777642756.8063588,-0.0281982421875,0.488525390625,0.73974609375,-12.39013671875,-5.06591796875,-2.685546875
1777642756.8063588,-0.0458984375,0.4610595703125,0.7357177734375,-7.8125,1.15966796875,2.25830078125
1777642756.8063588,-0.061279296875,0.430908203125,0.7760009765625,-2.5634765625,3.41796875,4.5166015625
1777642756.8063588,-0.086669921875,0.4146728515625,0.817138671875,0.42724609375,2.197265625,4.08935546875
1777642756.8063588,-0.1163330078125,0.4134521484375,0.8519287109375,1.89208984375,2.3193359375,3.41796875
1777642756.8063588,-0.1319580078125,0.416259765625,0.8994140625,0.91552734375,6.8359375,3.72314453125
1777642756.9579859,-0.140625,0.4188232421875,0.953125,-2.0751953125,9.3994140625,2.99072265625
1777642756.9579859,-0.1351318359375,0.4278564453125,1.0032958984375,-5.0048828125,5.0048828125,1.220703125
1777642756.9579859,-0.11474609375,0.4425048828125,1.0299072265625,-8.1787109375,-1.64794921875,-0.8544921875
1777642756.9579859,-0.0926513671875,0.4547119140625,1.021728515625,-11.77978515625,-5.55419921875,-1.15966796875
1777642756.9579859,-0.0704345703125,0.4556884765625,0.99560546875,-14.16015625,-9.82666015625,-1.40380859375
1777642756.9579859,-0.058837890625,0.452880859375,0.9705810546875,-15.5029296875,-16.54052734375,-2.38037109375
1777642756.9579859,-0.0350341796875,0.4547119140625,0.941650390625,-18.61572265625,-23.193359375,-2.685546875
1777642756.9579859,-0.03466796875,0.4410400390625,0.91259765625,-18.6767578125,-24.59716796875,-3.23486328125
1777642756.9579859,-0.06298828125,0.41455078125,0.89306640625,-20.263671875,-21.6064453125,-3.7841796875
1777642756.9579859,-0.0777587890625,0.4012451171875,0.8626708984375,-26.06201171875,-13.48876953125,-4.57763671875
1777642756.9579859,-0.0908203125,0.4007568359375,0.824462890625,-24.84130859375,-10.7421875,-6.77490234375
1777642756.9579859,-0.0941162109375,0.399169921875,0.833251953125,-20.99609375,-10.68115234375,-10.009765625
1777642756.9579859,-0.117431640625,0.3870849609375,0.867919921875,-18.4326171875,-10.31494140625,-11.65771484375
1777642756.9579859,-0.1636962890625,0.3668212890625,0.884521484375,-15.7470703125,-5.9814453125,-10.6201171875
1777642756.9579859,-0.1763916015625,0.3599853515625,0.880126953125,-16.11328125,0.54931640625,-8.72802734375
1777642756.9579859,-0.1732177734375,0.3626708984375,0.8626708984375,-14.58740234375,7.99560546875,-7.4462890625
1777642756.9579859,-0.178466796875,0.3555908203125,0.8587646484375,-10.986328125,11.41357421875,-7.87353515625
1777642756.9579859,-0.10498046875,0.400390625,0.81982421875,-9.521484375,14.5263671875,-8.60595703125
1777642756.9579859,-0.083984375,0.398193359375,0.84619140625,-6.89697265625,28.01513671875,-6.9580078125
1777642756.9579859,-0.1473388671875,0.3294677734375,0.9425048828125,-8.11767578125,22.76611328125,-9.8876953125
1777642757.1117826,-0.110107421875,0.3515625,0.9322509765625,-12.3291015625,14.0380859375,-11.65771484375
1777642757.1117826,-0.067138671875,0.3870849609375,0.91455078125,-10.3759765625,18.6767578125,-9.1552734375
1777642757.1117826,-0.0543212890625,0.398681640625,0.9432373046875,-11.1083984375,17.51708984375,-7.2021484375
1777642757.1117826,-0.0345458984375,0.40673828125,0.965576171875,-11.65771484375,17.02880859375,-5.79833984375
1777642757.1117826,-0.0611572265625,0.3941650390625,0.9801025390625,-13.671875,14.6484375,-5.37109375
1777642757.1117826,-0.097900390625,0.3841552734375,0.982421875,-13.24462890625,11.5966796875,-3.84521484375
1777642757.1117826,-0.115966796875,0.3741455078125,0.986328125,-14.404296875,12.20703125,-3.60107421875
1777642757.1117826,-0.1329345703125,0.3623046875,0.9852294921875,-15.19775390625,13.85498046875,-3.5400390625
1777642757.1117826,-0.135498046875,0.3568115234375,0.98291015625,-17.333984375,16.4794921875,-2.86865234375
1777642757.1117826,-0.1285400390625,0.3509521484375,0.9755859375,-21.240234375,17.333984375,-3.60107421875
1777642757.2704222,-0.1199951171875,0.35302734375,0.9544677734375,-24.35302734375,14.2822265625,-6.34765625
1777642757.2704222,-0.1011962890625,0.370849609375,0.94384765625,-23.193359375,10.07080078125,-8.60595703125
1777642757.2704222,-0.1143798828125,0.369873046875,0.92822265625,-23.4375,5.126953125,-9.33837890625
1777642757.2704222,-0.169921875,0.343505859375,0.903564453125,-18.5546875,3.23486328125,-7.8125
1777642757.2704222,-0.21484375,0.32763671875,0.8406982421875,-8.23974609375,13.61083984375,-3.0517578125
1777642757.2704222,-0.186767578125,0.329833984375,0.8785400390625,-16.05224609375,14.16015625,-2.99072265625
1777642757.2704222,-0.1444091796875,0.3515625,0.965576171875,-17.4560546875,6.28662109375,-3.41796875
1777642757.2704222,-0.171142578125,0.3560791015625,0.9156494140625,-6.16455078125,9.033203125,0.42724609375
1777642757.2704222,-0.2117919921875,0.3204345703125,0.8807373046875,-3.11279296875,17.7001953125,2.99072265625
1777642757.2704222,-0.20751953125,0.2935791015625,0.918701171875,-6.89697265625,20.44677734375,2.8076171875
1777642757.2704222,-0.16748046875,0.3057861328125,0.9586181640625,-7.568359375,18.6767578125,0.67138671875
1777642757.2704222,-0.1507568359375,0.3275146484375,0.93408203125,-6.34765625,15.93017578125,-0.06103515625
1777642757.2704222,-0.1602783203125,0.3248291015625,0.9140625,-1.52587890625,12.3291015625,-0.1220703125
1777642757.2704222,-0.156982421875,0.322998046875,0.9482421875,2.5634765625,5.79833984375,-0.6103515625
1777642757.2704222,-0.1307373046875,0.339111328125,0.99560546875,3.60107421875,3.23486328125,-0.3662109375
1777642757.2704222,-0.1197509765625,0.3487548828125,1.0126953125,-2.86865234375,3.84521484375,0.48828125
1777642757.2704222,-0.130615234375,0.343505859375,0.9954833984375,-4.7607421875,2.99072265625,1.46484375
1777642757.2704222,-0.1427001953125,0.337890625,1.009521484375,-7.26318359375,-1.8310546875,0.91552734375
1777642757.2704222,-0.155029296875,0.34033203125,1.0213623046875,-15.2587890625,-9.1552734375,0.48828125
1777642757.2704222,-0.1754150390625,0.33935546875,0.9307861328125,-12.6953125,-8.544921875,2.74658203125
1777642757.425044,-0.2025146484375,0.3114013671875,0.896728515625,-4.45556640625,-0.3662109375,5.67626953125
1777642757.425044,-0.197021484375,0.2991943359375,0.915283203125,-9.6435546875,-1.89208984375,4.638671875
1777642757.425044,-0.1829833984375,0.30322265625,0.9066162109375,-2.50244140625,-1.953125,3.173828125
1777642757.425044,-0.181884765625,0.300537109375,0.90869140625,-2.5634765625,-4.0283203125,1.953125
1777642757.425044,-0.1834716796875,0.2989501953125,0.9051513671875,1.0986328125,-4.21142578125,1.46484375
1777642757.425044,-0.188720703125,0.2947998046875,0.9271240234375,1.5869140625,-4.21142578125,1.3427734375
1777642757.425044,-0.1766357421875,0.30078125,0.94775390625,0.91552734375,-3.173828125,0.8544921875
1777642757.425044,-0.1629638671875,0.3070068359375,0.962890625,-1.8310546875,-1.40380859375,-0.06103515625
1777642757.425044,-0.168212890625,0.31005859375,0.9541015625,-4.39453125,0.8544921875,0.6103515625
1777642757.425044,-0.1793212890625,0.31494140625,0.931396484375,-5.18798828125,4.0283203125,2.38037109375
1777642757.5818322,-0.1787109375,0.31103515625,0.9248046875,-4.08935546875,7.32421875,4.150390625
1777642757.5818322,-0.1728515625,0.2952880859375,0.937255859375,-3.662109375,8.11767578125,4.57763671875
1777642757.5818322,-0.1829833984375,0.3155517578125,0.920166015625,-7.01904296875,7.38525390625,3.72314453125
1777642757.5818322,-0.20263671875,0.3414306640625,0.865234375,-5.126953125,11.65771484375,5.31005859375
1777642757.5818322,-0.201904296875,0.3148193359375,0.90283203125,2.5634765625,13.0615234375,6.8359375
1777642757.5818322,-0.1551513671875,0.294189453125,1.0006103515625,0.67138671875,11.3525390625,6.591796875
1777642757.5818322,-0.1220703125,0.310302734375,1.0025634765625,-3.7841796875,7.4462890625,2.50244140625
1777642757.5818322,-0.12939453125,0.3123779296875,0.97998046875,-1.708984375,1.89208984375,1.15966796875
