timestamp,ax,ay,az,gx,gy,gz
1777100175.6705005,0.14306640625,-0.064697265625,0.9271240234375,-80.74951171875,-22.64404296875,52.24609375
1777100175.6705005,0.1151123046875,-0.026123046875,0.9283447265625,-77.69775390625,-19.59228515625,57.0068359375
1777100175.6705005,0.125244140625,0.002685546875,0.9405517578125,-75.01220703125,-16.11328125,62.8662109375
1777100175.6705005,0.1629638671875,-0.0054931640625,0.965576171875,-64.39208984375,-16.78466796875,56.70166015625
1777100175.6705005,0.2005615234375,0.009521484375,0.9744873046875,-47.54638671875,-18.37158203125,39.55078125
1777100175.6705005,0.2174072265625,0.0489501953125,0.9736328125,-23.74267578125,-12.3291015625,23.5595703125
1777100175.6705005,0.1884765625,0.081787109375,1.0098876953125,-8.48388671875,-7.87353515625,9.70458984375
1777100175.6705005,0.145263671875,0.11181640625,1.033203125,0.54931640625,-21.3623046875,-3.662109375
1777100175.6705005,0.142333984375,0.1383056640625,1.0001220703125,7.50732421875,-30.8837890625,-14.16015625
1777100175.6705005,0.1767578125,0.1064453125,1.066162109375,20.32470703125,-20.56884765625,-14.46533203125
1777100175.6705005,0.276611328125,0.11474609375,1.0733642578125,119.81201171875,57.9833984375,8.11767578125
1777100175.6705005,0.283935546875,0.2332763671875,1.0172119140625,151.30615234375,101.806640625,16.78466796875
1777100175.6705005,0.1636962890625,0.24609375,1.05859375,94.17724609375,79.833984375,21.30126953125
1777100175.6705005,0.1134033203125,0.194580078125,1.0894775390625,86.9140625,65.00244140625,23.681640625
1777100175.6705005,0.1419677734375,0.245361328125,1.0797119140625,56.94580078125,55.48095703125,16.90673828125
1777100175.6705005,0.151611328125,0.2403564453125,1.0391845703125,22.64404296875,53.22265625,5.615234375
1777100175.6705005,0.0908203125,0.2069091796875,1.0523681640625,21.6064453125,53.466796875,4.21142578125
1777100175.6705005,0.0341796875,0.2509765625,1.055419921875,10.19287109375,36.68212890625,7.26318359375
1777100175.6705005,0.0537109375,0.2548828125,0.99755859375,12.39013671875,31.3720703125,5.615234375
1777100175.6705005,0.097900390625,0.224609375,0.959716796875,24.84130859375,42.90771484375,-1.3427734375
1777100175.6705005,0.069091796875,0.1812744140625,0.9332275390625,32.40966796875,65.49072265625,-10.19287109375
1777100175.6705005,-0.031982421875,0.1412353515625,0.9366455078125,71.59423828125,101.318359375,-19.04296875
1777100175.6705005,-0.0870361328125,0.1328125,0.9688720703125,138.0615234375,152.03857421875,-21.91162109375
1777100175.6705005,-0.0513916015625,0.1405029296875,0.9068603515625,225.76904296875,200.3173828125,-15.13671875
1777100175.6705005,-0.1009521484375,0.2572021484375,0.9013671875,213.5009765625,203.06396484375,-0.244140625
1777100175.6705005,-0.2073974609375,0.2879638671875,0.826904296875,-49.25537109375,27.77099609375,16.90673828125
1777100175.6705005,-0.206298828125,0.24169921875,0.8282470703125,-138.85498046875,-74.03564453125,8.36181640625
1777100175.6705005,-0.16943359375,0.243896484375,0.99365234375,-130.9814453125,-82.8857421875,-2.5634765625
1777100175.6705005,-0.1444091796875,0.2041015625,0.9896240234375,-109.68017578125,-89.17236328125,0.48828125
1777100175.6705005,-0.08837890625,0.15966796875,0.9569091796875,-105.46875,-118.46923828125,7.62939453125
1777100175.6705005,0.0240478515625,0.0894775390625,0.982421875,-107.91015625,-155.70068359375,5.7373046875
1777100175.6705005,0.1634521484375,0.022705078125,1.0677490234375,-75.0732421875,-40.0390625,11.53564453125
1777100175.6705005,0.191650390625,0.0364990234375,1.104248046875,-31.92138671875,-4.638671875,22.03369140625
1777100175.6705005,0.106201171875,0.064453125,1.0704345703125,-13.24462890625,1.52587890625,4.638671875
1777100175.6705005,0.0428466796875,0.094482421875,1.036865234375,-2.197265625,1.220703125,-0.06103515625
1777100175.6705005,0.0345458984375,0.1314697265625,1.0234375,0.1220703125,0.1220703125,9.58251953125
1777100175.6705005,0.05517578125,0.0760498046875,1.0184326171875,7.568359375,-2.685546875,21.05712890625
1777100175.6705005,0.0753173828125,0.0347900390625,1.0130615234375,3.662109375,-1.28173828125,26.06201171875
1777100175.6705005,0.069091796875,0.01318359375,1.0670166015625,12.3291015625,-0.18310546875,25.81787109375
1777100175.6705005,0.068115234375,0.00244140625,1.0889892578125,48.828125,-0.18310546875,19.22607421875
1777100175.6705005,0.07763671875,0.03955078125,1.0238037109375,64.75830078125,0.30517578125,16.90673828125
1777100175.6705005,0.08251953125,0.08837890625,0.9600830078125,54.19921875,0.06103515625,14.0380859375
1777100175.6705005,0.078857421875,0.117431640625,0.949951171875,30.57861328125,0.244140625,13.7939453125
1777100175.6705005,0.068359375,0.1092529296875,0.97021484375,18.00537109375,0.54931640625,11.1083984375
1777100175.6705005,0.069091796875,0.0859375,0.9810791015625,6.8359375,-0.48828125,3.47900390625
1777100175.6705005,0.063232421875,0.082763671875,0.996337890625,0.48828125,-0.1220703125,0.6103515625
1777100175.6705005,0.0635986328125,0.089599609375,1.0047607421875,-0.8544921875,-0.06103515625,1.46484375
1777100175.6705005,0.065185546875,0.0904541015625,1.008056640625,-1.5869140625,-0.244140625,-0.18310546875
1777100175.6705005,0.0606689453125,0.0947265625,1.0140380859375,1.708984375,-0.30517578125,-0.18310546875
1777100175.6714993,0.0604248046875,0.0994873046875,1.007080078125,5.18798828125,-0.42724609375,0.0
1777100175.6714993,0.0614013671875,0.1103515625,0.993408203125,3.72314453125,-0.42724609375,0.1220703125
1777100175.6714993,0.062255859375,0.11328125,0.99072265625,-0.18310546875,-0.48828125,0.30517578125
1777100175.6714993,0.0625,0.10595703125,0.99951171875,-2.13623046875,-0.48828125,0.3662109375
1777100175.6714993,0.061767578125,0.099853515625,1.01025390625,-0.3662109375,-0.54931640625,0.3662109375
1777100175.6714993,0.063232421875,0.10107421875,1.0118408203125,2.685546875,-0.54931640625,0.79345703125
1777100175.6714993,0.0645751953125,0.104248046875,1.0072021484375,2.74658203125,-0.54931640625,0.42724609375
1777100175.6714993,0.064208984375,0.107666015625,1.006103515625,0.732421875,-0.42724609375,-0.18310546875
1777100175.6714993,0.0645751953125,0.1075439453125,1.0078125,-0.54931640625,-0.30517578125,-0.244140625
1777100175.6714993,0.0634765625,0.1036376953125,1.0089111328125,-0.54931640625,-0.30517578125,-0.244140625
1777100175.6714993,0.0626220703125,0.1021728515625,1.00830078125,0.54931640625,-0.244140625,-0.244140625
1777100175.6714993,0.0628662109375,0.103271484375,1.005615234375,1.3427734375,-0.244140625,-0.18310546875
1777100175.6714993,0.062744140625,0.104736328125,1.002197265625,1.15966796875,-0.30517578125,-0.244140625
1777100175.6714993,0.0625,0.106201171875,1.000732421875,0.42724609375,-0.244140625,-0.244140625
1777100175.6714993,0.0615234375,0.105712890625,1.001953125,-0.30517578125,-0.244140625,-0.244140625
1777100175.6714993,0.061279296875,0.1041259765625,1.005615234375,-0.3662109375,-0.30517578125,-0.244140625
1777100175.6714993,0.06201171875,0.103271484375,1.0081787109375,0.30517578125,-0.244140625,-0.244140625
1777100175.6714993,0.0623779296875,0.1044921875,1.0067138671875,0.732421875,-0.244140625,-0.244140625
1777100175.6714993,0.0623779296875,0.105712890625,1.0052490234375,0.6103515625,-0.244140625,-0.244140625
1777100175.6714993,0.0626220703125,0.1053466796875,1.006103515625,-0.18310546875,-0.244140625,-0.244140625
1777100175.6714993,0.062744140625,0.1038818359375,1.0087890625,-0.54931640625,-0.1220703125,-0.244140625
1777100175.6714993,0.062744140625,0.102294921875,1.0118408203125,-0.1220703125,0.06103515625,-0.30517578125
1777100175.6714993,0.0628662109375,0.1031494140625,1.0118408203125,0.42724609375,0.18310546875,-0.30517578125
1777100175.6714993,0.0615234375,0.1036376953125,1.0074462890625,0.8544921875,0.244140625,-0.30517578125
1777100175.6714993,0.056884765625,0.0947265625,0.9774169921875,3.35693359375,-0.79345703125,0.244140625
1777100175.6714993,0.057373046875,0.099365234375,0.9534912109375,4.8828125,-2.01416015625,0.30517578125
1777100175.6714993,0.065673828125,0.1156005859375,0.9739990234375,0.1220703125,-2.62451171875,-0.1220703125
1777100175.6714993,0.0701904296875,0.111572265625,1.0103759765625,-4.638671875,-1.89208984375,-0.18310546875
1777100175.6714993,0.069091796875,0.099853515625,1.040771484375,-4.638671875,-0.6103515625,-0.30517578125
1777100175.6714993,0.0635986328125,0.094970703125,1.047607421875,-0.732421875,0.18310546875,-0.30517578125
1777100175.6714993,0.0577392578125,0.0992431640625,1.029541015625,2.44140625,0.244140625,-0.244140625
1777100175.6714993,0.057373046875,0.1063232421875,1.0089111328125,2.44140625,-0.18310546875,-0.18310546875
1777100175.6714993,0.0614013671875,0.10791015625,1.0010986328125,1.64794921875,-0.6103515625,-0.18310546875
1777100175.6714993,0.063720703125,0.1063232421875,0.99951171875,1.52587890625,-0.67138671875,-0.1220703125
1777100175.6714993,0.0631103515625,0.1065673828125,0.995849609375,1.3427734375,-0.48828125,0.0
1777100175.6714993,0.0614013671875,0.1063232421875,0.99072265625,0.6103515625,-0.30517578125,0.06103515625
1777100175.6714993,0.058837890625,0.1044921875,0.989501953125,-0.1220703125,-0.3662109375,0.06103515625
1777100175.6714993,0.0570068359375,0.1025390625,0.9937744140625,0.30517578125,-0.6103515625,0.30517578125
1777100175.6714993,0.057373046875,0.103759765625,0.9984130859375,1.52587890625,-0.8544921875,0.732421875
1777100175.6714993,0.0606689453125,0.1029052734375,1.0013427734375,1.15966796875,-0.91552734375,0.732421875
1777100175.6714993,0.0628662109375,0.1019287109375,1.0047607421875,0.06103515625,-0.79345703125,-0.06103515625
1777100175.6714993,0.06298828125,0.1029052734375,1.0072021484375,0.06103515625,-0.732421875,-0.1220703125
1777100175.6714993,0.0635986328125,0.102294921875,1.0062255859375,0.732421875,-0.8544921875,-0.06103515625
1777100175.6714993,0.06396484375,0.10400390625,1.0028076171875,1.40380859375,-0.9765625,-0.06103515625
1777100175.6714993,0.0648193359375,0.1063232421875,1.0001220703125,1.28173828125,-1.0986328125,-0.06103515625
1777100175.6714993,0.0654296875,0.107177734375,1.001708984375,0.06103515625,-1.15966796875,-0.06103515625
1777100175.6714993,0.06640625,0.1046142578125,1.0078125,-0.9765625,-1.0986328125,-0.1220703125
1777100175.6714993,0.0673828125,0.1015625,1.014404296875,-1.03759765625,-0.9765625,-0.1220703125
1777100175.6714993,0.0667724609375,0.10009765625,1.0181884765625,-0.3662109375,-0.79345703125,-0.18310546875
1777100175.6714993,0.0660400390625,0.1005859375,1.0179443359375,0.67138671875,-0.6103515625,-0.18310546875
1777100175.6714993,0.0657958984375,0.1031494140625,1.0135498046875,1.64794921875,-0.48828125,-0.18310546875
1777100175.9861686,0.0645751953125,0.1063232421875,1.0074462890625,1.64794921875,-0.42724609375,-0.18310546875
1777100175.9861686,0.063232421875,0.108154296875,1.0025634765625,0.8544921875,-0.3662109375,-0.18310546875
1777100175.9861686,0.062744140625,0.107666015625,0.9996337890625,0.30517578125,-0.30517578125,-0.244140625
1777100175.9861686,0.06201171875,0.1068115234375,0.99853515625,0.18310546875,-0.244140625,-0.244140625
1777100175.9861686,0.0609130859375,0.10546875,0.9976806640625,0.48828125,-0.244140625,-0.244140625
1777100175.9861686,0.0606689453125,0.104736328125,0.9974365234375,0.48828125,-0.30517578125,-0.244140625
1777100175.9861686,0.0606689453125,0.10400390625,1.0001220703125,0.18310546875,-0.42724609375,-0.244140625
1777100175.9861686,0.0606689453125,0.103271484375,1.00390625,-0.18310546875,-0.54931640625,-0.244140625
1777100175.9861686,0.0618896484375,0.1015625,1.0079345703125,-0.244140625,-0.6103515625,-0.244140625
1777100175.9861686,0.0631103515625,0.100341796875,1.0096435546875,0.244140625,-0.48828125,-0.18310546875
1777100175.9861686,0.0631103515625,0.0999755859375,1.008056640625,0.8544921875,-0.48828125,-0.18310546875
1777100175.9861686,0.063232421875,0.1016845703125,1.0045166015625,1.220703125,-0.54931640625,-0.18310546875
1777100175.9861686,0.0631103515625,0.103515625,1.000244140625,0.91552734375,-0.6103515625,-0.18310546875
1777100175.9861686,0.06298828125,0.1036376953125,0.997802734375,0.48828125,-0.67138671875,-0.18310546875
1777100175.9861686,0.0631103515625,0.103759765625,0.9998779296875,0.18310546875,-0.732421875,-0.18310546875
1777100175.9861686,0.0625,0.1041259765625,1.0029296875,0.18310546875,-0.79345703125,-0.18310546875
1777100175.9861686,0.062744140625,0.104736328125,1.005615234375,0.18310546875,-0.732421875,-0.18310546875
1777100175.9861686,0.063720703125,0.1051025390625,1.0074462890625,0.3662109375,-0.67138671875,-0.18310546875
1777100175.9861686,0.0643310546875,0.105224609375,1.0079345703125,0.3662109375,-0.54931640625,-0.18310546875
1777100175.9861686,0.064697265625,0.1048583984375,1.008544921875,0.42724609375,-0.54931640625,-0.18310546875
1777100175.9861686,0.0650634765625,0.1046142578125,1.008544921875,0.42724609375,-0.42724609375,-0.18310546875
1777100175.9861686,0.0653076171875,0.1043701171875,1.0076904296875,0.54931640625,-0.3662109375,-0.18310546875
1777100175.9861686,0.0654296875,0.103271484375,1.0050048828125,0.6103515625,-0.30517578125,-0.18310546875
1777100175.9861686,0.065673828125,0.1014404296875,1.001708984375,0.54931640625,-0.30517578125,-0.244140625
1777100175.9861686,0.0653076171875,0.0999755859375,0.998779296875,0.6103515625,-0.3662109375,-0.18310546875
1777100175.9861686,0.0638427734375,0.099365234375,0.9962158203125,0.54931640625,-0.54931640625,-0.244140625
1777100175.9861686,0.062744140625,0.0997314453125,0.995361328125,0.6103515625,-0.67138671875,-0.18310546875
1777100175.9861686,0.062255859375,0.1007080078125,0.9979248046875,0.3662109375,-0.732421875,-0.244140625
1777100175.9861686,0.0623779296875,0.102294921875,1.0030517578125,0.1220703125,-0.732421875,-0.18310546875
1777100175.9861686,0.06201171875,0.104248046875,1.00927734375,0.0,-0.6103515625,-0.18310546875
1777100176.2100484,0.061767578125,0.10546875,1.0126953125,0.54931640625,-0.48828125,-0.18310546875
1777100176.2100484,0.06201171875,0.1077880859375,1.01220703125,0.9765625,-0.48828125,-0.18310546875
1777100176.2100484,0.0626220703125,0.11083984375,1.0107421875,0.91552734375,-0.42724609375,-0.18310546875
1777100176.2100484,0.062744140625,0.112060546875,1.0079345703125,1.03759765625,-0.42724609375,-0.244140625
1777100176.2100484,0.062255859375,0.11083984375,1.0030517578125,1.15966796875,-0.54931640625,-0.244140625
1777100176.2100484,0.0625,0.109375,0.9996337890625,0.244140625,-0.6103515625,-0.244140625
1777100176.2100484,0.0631103515625,0.1065673828125,1.0015869140625,-0.6103515625,-0.6103515625,-0.244140625
1777100176.2100484,0.062255859375,0.1016845703125,1.0062255859375,-0.42724609375,-0.54931640625,-0.244140625
1777100176.2100484,0.0601806640625,0.0975341796875,1.0047607421875,0.244140625,-0.48828125,-0.244140625
1777100176.2100484,0.060302734375,0.09912109375,0.993896484375,2.13623046875,-0.8544921875,-0.244140625
1777100176.2100484,0.0638427734375,0.1025390625,0.9937744140625,0.3662109375,-1.03759765625,-0.18310546875
1777100176.2100484,0.0655517578125,0.1002197265625,1.00537109375,-1.0986328125,-0.8544921875,-0.18310546875
1777100176.2100484,0.0655517578125,0.0972900390625,1.0111083984375,0.244140625,-0.67138671875,-0.244140625
1777100176.2100484,0.0650634765625,0.098876953125,1.0086669921875,1.28173828125,-0.54931640625,-0.18310546875
1777100176.2100484,0.063232421875,0.1024169921875,1.0029296875,1.0986328125,-0.6103515625,-0.18310546875
1777100176.2100484,0.0625,0.104248046875,1.0023193359375,0.42724609375,-0.79345703125,-0.18310546875
1777100176.2100484,0.0631103515625,0.103759765625,1.0047607421875,0.1220703125,-0.91552734375,-0.18310546875
1777100176.2100484,0.0643310546875,0.1036376953125,1.0069580078125,0.30517578125,-0.8544921875,-0.244140625
1777100176.2100484,0.0648193359375,0.103759765625,1.008056640625,0.0,-0.67138671875,-0.244140625
1777100176.2100484,0.065185546875,0.1021728515625,1.0076904296875,0.18310546875,-0.6103515625,-0.18310546875
1777100176.422113,0.06591796875,0.1026611328125,1.00634765625,1.03759765625,-0.6103515625,-0.18310546875
1777100176.422113,0.0662841796875,0.10546875,1.004638671875,1.0986328125,-0.54931640625,-0.18310546875
1777100176.422113,0.0657958984375,0.1072998046875,1.0050048828125,0.30517578125,-0.42724609375,-0.244140625
1777100176.422113,0.065185546875,0.10595703125,1.00634765625,-0.18310546875,-0.3662109375,-0.244140625
1777100176.422113,0.064208984375,0.103515625,1.005126953125,0.6103515625,-0.30517578125,-0.244140625
1777100176.422113,0.0623779296875,0.1043701171875,1.0006103515625,1.40380859375,-0.48828125,-0.18310546875
1777100176.422113,0.06201171875,0.1065673828125,0.99755859375,1.03759765625,-0.6103515625,-0.18310546875
1777100176.422113,0.0631103515625,0.1055908203125,1.0009765625,-0.18310546875,-0.67138671875,-0.244140625
1777100176.422113,0.063720703125,0.1031494140625,1.005859375,-0.30517578125,-0.54931640625,-0.244140625
1777100176.422113,0.063232421875,0.1015625,1.0067138671875,0.244140625,-0.42724609375,-0.244140625
1777100176.422113,0.062744140625,0.1011962890625,1.0050048828125,0.54931640625,-0.48828125,-0.244140625
1777100176.422113,0.0628662109375,0.1014404296875,1.00537109375,0.244140625,-0.48828125,-0.18310546875
1777100176.422113,0.06396484375,0.1004638671875,1.0086669921875,0.0,-0.48828125,-0.18310546875
1777100176.422113,0.0648193359375,0.1005859375,1.0107421875,0.244140625,-0.3662109375,-0.18310546875
1777100176.422113,0.0648193359375,0.1015625,1.009765625,0.54931640625,-0.30517578125,-0.18310546875
1777100176.422113,0.06494140625,0.1029052734375,1.006591796875,0.67138671875,-0.244140625,-0.244140625
1777100176.422113,0.0645751953125,0.1033935546875,1.005126953125,0.54931640625,-0.244140625,-0.244140625
1777100176.422113,0.0643310546875,0.1033935546875,1.005615234375,0.30517578125,-0.1220703125,-0.244140625
1777100176.422113,0.064697265625,0.10400390625,1.0069580078125,-0.06103515625,0.0,-0.244140625
1777100176.422113,0.064697265625,0.103515625,1.0087890625,-0.3662109375,0.18310546875,-0.244140625
1777100176.6066675,0.0633544921875,0.101318359375,1.0089111328125,-0.1220703125,0.30517578125,-0.244140625
1777100176.6066675,0.062255859375,0.100341796875,1.006591796875,0.79345703125,0.244140625,-0.18310546875
1777100176.6066675,0.061767578125,0.10302734375,1.00048828125,1.3427734375,0.1220703125,-0.18310546875
1777100176.6066675,0.0615234375,0.104736328125,0.99462890625,0.9765625,-0.06103515625,-0.18310546875
1777100176.6066675,0.0618896484375,0.1044921875,0.9925537109375,0.79345703125,-0.30517578125,-0.244140625
1777100176.6066675,0.0618896484375,0.1046142578125,0.992431640625,0.48828125,-0.48828125,-0.18310546875
1777100176.6066675,0.06201171875,0.1043701171875,0.9951171875,0.06103515625,-0.6103515625,-0.244140625
1777100176.6066675,0.062744140625,0.1015625,0.9974365234375,-0.1220703125,-0.732421875,-0.244140625
1777100176.6066675,0.0618896484375,0.1009521484375,0.9998779296875,0.48828125,-0.91552734375,-0.18310546875
1777100176.6066675,0.0634765625,0.103515625,1.0067138671875,-0.06103515625,-0.9765625,-0.18310546875
1777100176.6066675,0.0653076171875,0.10205078125,1.013916015625,-0.67138671875,-0.79345703125,-0.18310546875
1777100176.6066675,0.064453125,0.0992431640625,1.0169677734375,-0.1220703125,-0.54931640625,-0.18310546875
1777100176.6066675,0.0643310546875,0.0994873046875,1.012939453125,1.0986328125,-0.48828125,-0.18310546875
1777100176.6066675,0.0634765625,0.101806640625,1.0047607421875,1.40380859375,-0.48828125,-0.18310546875
1777100176.6066675,0.063232421875,0.103515625,0.999755859375,0.8544921875,-0.6103515625,-0.244140625
1777100176.6066675,0.0643310546875,0.104248046875,1.0003662109375,0.3662109375,-0.67138671875,-0.244140625
1777100176.6066675,0.0650634765625,0.1038818359375,1.00244140625,0.244140625,-0.54931640625,-0.244140625
1777100176.6066675,0.0648193359375,0.1025390625,1.0037841796875,0.18310546875,-0.42724609375,-0.244140625
1777100176.6066675,0.064453125,0.101806640625,1.005615234375,0.244140625,-0.30517578125,-0.244140625
1777100176.6066675,0.0635986328125,0.1025390625,1.0072021484375,0.3662109375,-0.18310546875,-0.244140625
1777100176.7784889,0.063232421875,0.1031494140625,1.0084228515625,0.67138671875,-0.1220703125,-0.244140625
1777100176.7784889,0.0631103515625,0.1026611328125,1.00830078125,0.67138671875,-0.06103515625,-0.244140625
1777100176.7784889,0.06298828125,0.1025390625,1.0067138671875,0.54931640625,0.0,-0.244140625
1777100176.7784889,0.0626220703125,0.1019287109375,1.003662109375,0.67138671875,-0.06103515625,-0.244140625
1777100176.7784889,0.0621337890625,0.1015625,0.99951171875,1.15966796875,-0.244140625,-0.244140625
1777100176.7784889,0.0615234375,0.10400390625,0.9954833984375,1.46484375,-0.48828125,-0.244140625
1777100176.7784889,0.0611572265625,0.1058349609375,0.9949951171875,0.54931640625,-0.6103515625,-0.244140625
1777100176.7784889,0.061767578125,0.1036376953125,1.0009765625,-0.6103515625,-0.6103515625,-0.244140625
1777100176.7784889,0.0626220703125,0.1004638671875,1.008544921875,-0.67138671875,-0.54931640625,-0.244140625
1777100176.7784889,0.0631103515625,0.0992431640625,1.010986328125,0.244140625,-0.48828125,-0.244140625
1777100176.7784889,0.0623779296875,0.099609375,1.0076904296875,0.91552734375,-0.54931640625,-0.244140625
1777100176.7784889,0.0618896484375,0.10107421875,1.002197265625,1.15966796875,-0.79345703125,-0.18310546875
1777100176.7784889,0.0633544921875,0.102294921875,1.0003662109375,0.6103515625,-0.8544921875,-0.18310546875
1777100176.7784889,0.06494140625,0.1024169921875,1.00439453125,0.0,-0.79345703125,-0.18310546875
1777100176.7784889,0.066162109375,0.101806640625,1.0096435546875,-0.3662109375,-0.54931640625,-0.244140625
1777100176.7784889,0.0653076171875,0.0997314453125,1.0093994140625,0.244140625,-0.30517578125,-0.244140625
1777100176.7784889,0.0623779296875,0.099609375,1.0045166015625,1.15966796875,-0.30517578125,-0.244140625
1777100176.7784889,0.0615234375,0.1024169921875,0.99951171875,1.3427734375,-0.54931640625,-0.244140625
1777100176.7784889,0.0587158203125,0.097900390625,0.9853515625,1.03759765625,-0.8544921875,-0.18310546875
1777100176.7784889,0.0614013671875,0.105712890625,0.981689453125,2.99072265625,-1.64794921875,-0.18310546875
1777100176.967951,0.0682373046875,0.11376953125,1.0081787109375,-2.685546875,-1.220703125,-0.18310546875
1777100176.967951,0.0660400390625,0.101318359375,1.0291748046875,-3.47900390625,-0.30517578125,-0.244140625
1777100176.967951,0.0626220703125,0.0938720703125,1.029541015625,0.06103515625,0.06103515625,-0.244140625
1777100176.967951,0.0616455078125,0.0997314453125,1.0135498046875,3.11279296875,-0.06103515625,-0.18310546875
1777100176.967951,0.0609130859375,0.10791015625,0.9984130859375,2.38037109375,-0.54931640625,-0.1220703125
1777100176.967951,0.062255859375,0.10693359375,1.0001220703125,0.244140625,-0.732421875,-0.18310546875
1777100176.967951,0.0648193359375,0.1029052734375,1.0050048828125,-0.18310546875,-0.6103515625,-0.244140625
1777100176.967951,0.064208984375,0.102294921875,1.00439453125,0.48828125,-0.3662109375,-0.244140625
1777100176.9689503,0.0616455078125,0.1025390625,0.9993896484375,0.244140625,-0.244140625,-0.244140625
1777100176.9689503,0.0609130859375,0.10205078125,0.999267578125,0.244140625,-0.42724609375,-0.244140625
1777100176.9689503,0.062255859375,0.1026611328125,1.00390625,0.48828125,-0.6103515625,-0.244140625
1777100176.9689503,0.0640869140625,0.1033935546875,1.0079345703125,0.244140625,-0.48828125,-0.244140625
1777100176.9689503,0.064453125,0.1024169921875,1.0130615234375,-0.732421875,-0.18310546875,-0.244140625
1777100176.9689503,0.0648193359375,0.0994873046875,1.0177001953125,-1.0986328125,0.18310546875,-0.244140625
1777100176.9689503,0.0645751953125,0.0965576171875,1.017578125,0.30517578125,0.42724609375,-0.244140625
1777100176.9689503,0.0628662109375,0.0972900390625,1.0068359375,2.50244140625,0.42724609375,-0.244140625
1777100176.9689503,0.0615234375,0.1019287109375,0.9913330078125,2.62451171875,0.1220703125,-0.18310546875
1777100176.9689503,0.061767578125,0.105224609375,0.9833984375,1.220703125,-0.30517578125,-0.244140625
1777100176.9689503,0.06298828125,0.10546875,0.9892578125,-0.6103515625,-0.48828125,-0.244140625
1777100176.9689503,0.0625,0.1025390625,1.0025634765625,-1.40380859375,-0.42724609375,-0.244140625
1777100177.1600316,0.061767578125,0.099853515625,1.0125732421875,-0.91552734375,-0.1220703125,-0.244140625
1777100177.1600316,0.0614013671875,0.099853515625,1.0157470703125,0.30517578125,0.06103515625,-0.244140625
1777100177.1600316,0.0609130859375,0.10205078125,1.0140380859375,1.220703125,0.0,-0.244140625
1777100177.1600316,0.061279296875,0.1036376953125,1.0103759765625,1.28173828125,0.0,-0.18310546875
1777100177.1600316,0.06298828125,0.104736328125,1.0059814453125,0.67138671875,-0.1220703125,-0.244140625
1777100177.1600316,0.0635986328125,0.1043701171875,1.0029296875,0.42724609375,-0.18310546875,-0.244140625
1777100177.1600316,0.062255859375,0.103271484375,1.0003662109375,0.54931640625,-0.244140625,-0.244140625
1777100177.1600316,0.0609130859375,0.10302734375,0.9967041015625,0.8544921875,-0.3662109375,-0.244140625
1777100177.1600316,0.05908203125,0.1024169921875,0.99267578125,1.03759765625,-0.48828125,-0.244140625
1777100177.1600316,0.05859375,0.1021728515625,0.9908447265625,0.732421875,-0.732421875,-0.244140625
1777100177.1600316,0.0592041015625,0.1019287109375,0.9925537109375,0.30517578125,-1.03759765625,-0.244140625
1777100177.1600316,0.0577392578125,0.097900390625,0.9951171875,-0.244140625,-1.220703125,-0.18310546875
1777100177.1600316,0.059326171875,0.0965576171875,0.983154296875,2.50244140625,-2.13623046875,-0.1220703125
1777100177.1600316,0.0645751953125,0.1058349609375,0.9903564453125,1.0986328125,-2.13623046875,-0.18310546875
1777100177.1600316,0.06689453125,0.1041259765625,1.014404296875,-2.685546875,-1.5869140625,-0.18310546875
1777100177.1600316,0.0653076171875,0.0947265625,1.0184326171875,-0.48828125,-1.28173828125,-0.244140625
1777100177.1600316,0.0626220703125,0.095703125,1.013916015625,1.28173828125,-1.15966796875,-0.18310546875
1777100177.1600316,0.062255859375,0.1019287109375,1.005859375,2.197265625,-1.46484375,-0.18310546875
1777100177.1600316,0.063232421875,0.105712890625,1.0079345703125,0.48828125,-1.5869140625,-0.18310546875
1777100177.1600316,0.06494140625,0.103515625,1.016357421875,-0.48828125,-1.28173828125,-0.18310546875
1777100177.3365734,0.0665283203125,0.1019287109375,1.0194091796875,0.67138671875,-0.79345703125,-0.244140625
1777100177.3365734,0.0645751953125,0.10400390625,1.0152587890625,1.28173828125,-0.48828125,-0.30517578125
1777100177.3365734,0.0625,0.105712890625,1.007568359375,0.8544921875,-0.3662109375,-0.244140625
1777100177.3365734,0.0634765625,0.10400390625,1.004638671875,0.91552734375,-0.42724609375,-0.244140625
1777100177.3365734,0.064208984375,0.1026611328125,1.0029296875,0.79345703125,-0.54931640625,-0.244140625
1777100177.3365734,0.06396484375,0.1029052734375,1.00048828125,0.48828125,-0.6103515625,-0.244140625
1777100177.3365734,0.065185546875,0.101318359375,1.0020751953125,-0.3662109375,-0.42724609375,-0.244140625
1777100177.3365734,0.0648193359375,0.096923828125,1.003662109375,0.1220703125,-0.30517578125,-0.244140625
1777100177.3365734,0.0633544921875,0.0966796875,1.0001220703125,1.52587890625,-0.42724609375,-0.244140625
1777100177.3365734,0.063232421875,0.1011962890625,0.9951171875,1.64794921875,-0.6103515625,-0.244140625
1777100177.5001843,0.063232421875,0.103759765625,0.9954833984375,0.67138671875,-0.79345703125,-0.244140625
1777100177.5001843,0.062255859375,0.103515625,1.00146484375,-0.244140625,-0.91552734375,-0.244140625
1777100177.5001843,0.0623779296875,0.103271484375,1.007568359375,-0.18310546875,-0.91552734375,-0.244140625
1777100177.5001843,0.062744140625,0.1024169921875,1.0113525390625,0.06103515625,-0.8544921875,-0.244140625
1777100177.5001843,0.0621337890625,0.1011962890625,1.0123291015625,0.54931640625,-0.8544921875,-0.244140625
1777100177.5001843,0.0626220703125,0.1014404296875,1.0103759765625,0.79345703125,-0.79345703125,-0.18310546875
1777100177.5001843,0.0635986328125,0.1014404296875,1.006591796875,0.6103515625,-0.732421875,-0.244140625
1777100177.5001843,0.0643310546875,0.10107421875,1.0040283203125,0.42724609375,-0.732421875,-0.18310546875
1777100177.5001843,0.064453125,0.1011962890625,1.0018310546875,0.30517578125,-0.79345703125,-0.244140625
1777100177.5001843,0.0648193359375,0.10107421875,1.0013427734375,0.30517578125,-0.732421875,-0.244140625
1777100177.5001843,0.06591796875,0.1015625,1.0032958984375,0.6103515625,-0.6103515625,-0.244140625
1777100177.5001843,0.0660400390625,0.103271484375,1.0045166015625,0.79345703125,-0.48828125,-0.18310546875
1777100177.5001843,0.0650634765625,0.103515625,1.0054931640625,0.48828125,-0.3662109375,-0.244140625
1777100177.5001843,0.064208984375,0.1019287109375,1.006103515625,0.18310546875,-0.30517578125,-0.244140625
1777100177.5001843,0.0634765625,0.1019287109375,1.0067138671875,0.42724609375,-0.3662109375,-0.244140625
1777100177.5001843,0.0635986328125,0.1031494140625,1.0062255859375,0.79345703125,-0.42724609375,-0.18310546875
1777100177.5001843,0.064453125,0.103271484375,1.00634765625,0.30517578125,-0.3662109375,-0.18310546875
1777100177.5001843,0.0650634765625,0.1019287109375,1.00830078125,-0.1220703125,-0.18310546875,-0.18310546875
1777100177.5001843,0.06494140625,0.099365234375,1.0079345703125,0.42724609375,-0.18310546875,-0.244140625
1777100177.5001843,0.06396484375,0.099365234375,1.0029296875,1.3427734375,-0.30517578125,-0.244140625
1777100177.5001843,0.062744140625,0.10302734375,1.0,1.03759765625,-0.48828125,-0.18310546875
1777100177.5001843,0.0631103515625,0.103759765625,1.002197265625,-0.48828125,-0.42724609375,-0.18310546875
1777100177.5001843,0.0634765625,0.10205078125,1.001953125,0.67138671875,-0.54931640625,-0.18310546875
1777100177.5001843,0.0625,0.1031494140625,0.9974365234375,1.52587890625,-0.67138671875,-0.244140625
1777100177.5001843,0.0631103515625,0.1060791015625,0.9957275390625,0.67138671875,-0.79345703125,-0.18310546875
1777100177.5001843,0.0643310546875,0.105712890625,1.002685546875,-0.79345703125,-0.79345703125,-0.244140625
1777100177.5001843,0.064697265625,0.1002197265625,1.0101318359375,-0.67138671875,-0.6103515625,-0.244140625
1777100177.5001843,0.0648193359375,0.098388671875,1.0108642578125,0.67138671875,-0.54931640625,-0.18310546875
1777100177.5001843,0.064697265625,0.1015625,1.0079345703125,0.79345703125,-0.48828125,-0.18310546875
1777100177.5001843,0.0650634765625,0.1015625,1.0057373046875,0.42724609375,-0.42724609375,-0.244140625
1777100177.671265,0.0655517578125,0.0997314453125,1.00439453125,1.03759765625,-0.48828125,-0.18310546875
1777100177.671265,0.0655517578125,0.10205078125,1.0015869140625,1.0986328125,-0.48828125,-0.244140625
1777100177.671265,0.0655517578125,0.1038818359375,1.0010986328125,0.30517578125,-0.48828125,-0.244140625
1777100177.671265,0.06494140625,0.102783203125,1.0067138671875,-0.18310546875,-0.42724609375,-0.244140625
1777100177.671265,0.0640869140625,0.1024169921875,1.0133056640625,0.0,-0.244140625,-0.244140625
1777100177.671265,0.064453125,0.10302734375,1.0191650390625,-0.3662109375,0.0,-0.244140625
1777100177.671265,0.0645751953125,0.1015625,1.0240478515625,-0.732421875,0.3662109375,-0.244140625
1777100177.671265,0.063720703125,0.0987548828125,1.0220947265625,-0.1220703125,0.67138671875,-0.244140625
1777100177.671265,0.0621337890625,0.09716796875,1.010009765625,1.46484375,0.67138671875,-0.244140625
1777100177.671265,0.0621337890625,0.0986328125,0.98974609375,2.44140625,0.30517578125,-0.244140625
1777100177.8529289,0.0635986328125,0.1024169921875,0.974853515625,2.44140625,-0.244140625,-0.18310546875
1777100177.8529289,0.064453125,0.1053466796875,0.977783203125,0.6103515625,-0.6103515625,-0.244140625
1777100177.8539295,0.0650634765625,0.105712890625,0.993408203125,-1.52587890625,-0.42724609375,-0.244140625
1777100177.8539295,0.064697265625,0.1019287109375,1.010498046875,-2.25830078125,-0.06103515625,-0.30517578125
1777100177.8539295,0.0625,0.097412109375,1.01953125,-0.8544921875,0.18310546875,-0.244140625
1777100177.8539295,0.0609130859375,0.099365234375,1.0189208984375,1.15966796875,0.18310546875,-0.244140625
1777100177.8539295,0.0628662109375,0.1044921875,1.0162353515625,1.52587890625,0.18310546875,-0.244140625
1777100177.8539295,0.0653076171875,0.10546875,1.0145263671875,0.8544921875,0.30517578125,-0.30517578125
1777100177.8539295,0.0654296875,0.10400390625,1.01025390625,0.732421875,0.54931640625,-0.30517578125
1777100177.8539295,0.0562744140625,0.091064453125,0.9781494140625,1.708984375,0.244140625,-0.244140625
1777100177.8539295,0.053955078125,0.1016845703125,0.9315185546875,10.92529296875,-2.685546875,0.0
1777100177.8539295,0.0625,0.1146240234375,0.9312744140625,0.244140625,-3.35693359375,0.0
1777100177.8539295,0.0648193359375,0.1082763671875,0.9638671875,-2.44140625,-3.662109375,-0.1220703125
1777100177.8539295,0.0684814453125,0.099853515625,1.001953125,-4.638671875,-3.35693359375,-0.244140625
1777100177.8539295,0.065185546875,0.0888671875,1.0208740234375,-2.44140625,-2.50244140625,-0.18310546875
1777100177.8539295,0.0604248046875,0.093505859375,1.0142822265625,0.6103515625,-2.86865234375,-0.18310546875
1777100177.8539295,0.0625,0.0960693359375,1.0140380859375,1.15966796875,-3.35693359375,-0.18310546875
1777100177.8539295,0.0643310546875,0.09521484375,1.006591796875,2.8076171875,-3.90625,-0.1220703125
1777100177.8539295,0.06787109375,0.10205078125,0.9901123046875,5.0048828125,-4.638671875,-0.06103515625
1777100177.8539295,0.068603515625,0.1097412109375,0.97802734375,3.41796875,-4.94384765625,-0.1220703125
1777100178.0168078,0.0677490234375,0.1099853515625,0.9759521484375,1.0986328125,-5.126953125,-0.1220703125
1777100178.0168078,0.068603515625,0.1083984375,0.981689453125,1.15966796875,-5.43212890625,-0.18310546875
1777100178.0168078,0.069580078125,0.1090087890625,0.991943359375,1.220703125,-5.7373046875,-0.3662109375
1777100178.0168078,0.0712890625,0.1055908203125,0.9935302734375,1.40380859375,-6.103515625,-1.0986328125
1777100178.0168078,0.0728759765625,0.1080322265625,1.000244140625,0.42724609375,-6.103515625,-1.5869140625
1777100178.0168078,0.076416015625,0.1087646484375,1.0289306640625,-3.5400390625,-5.4931640625,-0.79345703125
1777100178.0168078,0.0797119140625,0.0980224609375,1.056884765625,-3.96728515625,-4.33349609375,-0.54931640625
1777100178.0168078,0.081298828125,0.0933837890625,1.072509765625,-1.77001953125,-3.11279296875,-0.1220703125
1777100178.0168078,0.08154296875,0.0946044921875,1.0701904296875,1.3427734375,-1.8310546875,-0.1220703125
1777100178.0168078,0.07763671875,0.0986328125,1.047607421875,3.60107421875,-0.91552734375,-0.1220703125
1777100178.0168078,0.07421875,0.1043701171875,1.0152587890625,3.90625,-0.732421875,-0.18310546875
1777100178.0168078,0.0736083984375,0.10791015625,0.9913330078125,2.01416015625,-0.91552734375,-0.1220703125
1777100178.0168078,0.07470703125,0.106689453125,0.9832763671875,0.42724609375,-1.03759765625,-0.1220703125
1777100178.0168078,0.0748291015625,0.1044921875,0.987060546875,-0.06103515625,-0.9765625,-0.18310546875
1777100178.0168078,0.0750732421875,0.1048583984375,0.9954833984375,0.244140625,-0.732421875,-0.18310546875
1777100178.0168078,0.0762939453125,0.1065673828125,1.0030517578125,0.8544921875,-0.42724609375,-0.244140625
1777100178.0168078,0.0772705078125,0.107666015625,1.0069580078125,1.15966796875,-0.244140625,-0.244140625
1777100178.0168078,0.0770263671875,0.10595703125,1.007568359375,0.8544921875,-0.244140625,-0.244140625
1777100178.0168078,0.07666015625,0.10205078125,1.0072021484375,0.6103515625,-0.3662109375,-0.244140625
1777100178.0168078,0.07666015625,0.098388671875,1.0062255859375,0.67138671875,-0.42724609375,-0.244140625
1777100178.1948845,0.0765380859375,0.0972900390625,1.00537109375,0.8544921875,-0.42724609375,-0.18310546875
1777100178.1948845,0.0758056640625,0.099609375,1.003173828125,1.40380859375,-0.3662109375,-0.18310546875
1777100178.1948845,0.0738525390625,0.1026611328125,0.99951171875,1.5869140625,-0.3662109375,-0.18310546875
1777100178.1948845,0.071533203125,0.10400390625,0.9971923828125,1.15966796875,-0.48828125,-0.18310546875
1777100178.1948845,0.071533203125,0.10400390625,0.99755859375,0.48828125,-0.732421875,-0.18310546875
1777100178.1948845,0.0709228515625,0.105224609375,1.0018310546875,0.06103515625,-0.91552734375,-0.18310546875
1777100178.1948845,0.0706787109375,0.1082763671875,1.0059814453125,0.732421875,-1.0986328125,-0.18310546875
1777100178.1948845,0.07275390625,0.109619140625,1.0040283203125,1.3427734375,-1.220703125,-0.18310546875
1777100178.1948845,0.0753173828125,0.10888671875,1.000244140625,0.79345703125,-1.28173828125,-0.244140625
1777100178.1948845,0.0777587890625,0.1072998046875,1.00146484375,0.0,-1.220703125,-0.18310546875
1777100178.1948845,0.0792236328125,0.1044921875,1.0050048828125,0.06103515625,-1.0986328125,-0.244140625
1777100178.1948845,0.0794677734375,0.1025390625,1.00439453125,0.732421875,-0.91552734375,-0.244140625
1777100178.1948845,0.079345703125,0.1026611328125,1.0006103515625,1.15966796875,-0.8544921875,-0.244140625
1777100178.1948845,0.0794677734375,0.102783203125,0.999755859375,0.732421875,-0.8544921875,-0.244140625
1777100178.1948845,0.07861328125,0.1021728515625,1.0052490234375,-0.1220703125,-0.67138671875,-0.30517578125
1777100178.1963348,0.0775146484375,0.1015625,1.0133056640625,-0.30517578125,-0.42724609375,-0.244140625
1777100178.1963348,0.077392578125,0.1014404296875,1.015625,0.6103515625,-0.244140625,-0.244140625
1777100178.1963348,0.07666015625,0.1038818359375,1.0106201171875,1.89208984375,-0.18310546875,-0.244140625
1777100178.1963348,0.074951171875,0.1077880859375,1.00439453125,1.5869140625,-0.244140625,-0.244140625
1777100178.1963348,0.0750732421875,0.1090087890625,1.0032958984375,0.30517578125,-0.30517578125,-0.244140625
1777100178.3634655,0.0758056640625,0.1065673828125,1.005126953125,-0.18310546875,-0.244140625,-0.244140625
1777100178.364871,0.0762939453125,0.103759765625,1.0025634765625,0.67138671875,-0.30517578125,-0.244140625
1777100178.364871,0.0765380859375,0.103515625,0.994873046875,1.5869140625,-0.48828125,-0.244140625
1777100178.364871,0.0760498046875,0.1053466796875,0.9884033203125,1.220703125,-0.732421875,-0.244140625
1777100178.364871,0.07666015625,0.1051025390625,0.990478515625,-0.06103515625,-0.91552734375,-0.244140625
1777100178.364871,0.077392578125,0.1036376953125,0.9986572265625,-0.3662109375,-0.91552734375,-0.244140625
1777100178.364871,0.0771484375,0.1031494140625,1.0057373046875,0.244140625,-0.91552734375,-0.30517578125
1777100178.364871,0.076416015625,0.1036376953125,1.0076904296875,0.91552734375,-0.8544921875,-0.244140625
1777100178.364871,0.075927734375,0.1055908203125,1.0081787109375,0.54931640625,-0.79345703125,-0.244140625
1777100178.364871,0.07666015625,0.1055908203125,1.010498046875,0.0,-0.67138671875,-0.244140625
1777100178.5270545,0.07666015625,0.104736328125,1.0113525390625,0.42724609375,-0.6103515625,-0.18310546875
1777100178.5270545,0.0767822265625,0.10498046875,1.00732421875,1.15966796875,-0.54931640625,-0.18310546875
1777100178.5270545,0.0771484375,0.1055908203125,0.9989013671875,1.40380859375,-0.54931640625,-0.244140625
1777100178.5270545,0.0767822265625,0.1060791015625,0.9925537109375,1.0986328125,-0.732421875,-0.244140625
1777100178.5270545,0.0775146484375,0.1060791015625,0.9949951171875,0.06103515625,-0.732421875,-0.244140625
1777100178.5270545,0.077880859375,0.1038818359375,1.0050048828125,-0.8544921875,-0.54931640625,-0.244140625
1777100178.5270545,0.07666015625,0.1004638671875,1.01416015625,-0.42724609375,-0.244140625,-0.244140625
1777100178.5270545,0.074951171875,0.100830078125,1.0164794921875,0.3662109375,-0.06103515625,-0.244140625
1777100178.5270545,0.0740966796875,0.1038818359375,1.01416015625,0.54931640625,0.0,-0.244140625
1777100178.5270545,0.0748291015625,0.1058349609375,1.0113525390625,0.18310546875,0.0,-0.244140625
1777100178.5270545,0.076416015625,0.1058349609375,1.01025390625,-0.06103515625,0.1220703125,-0.244140625
1777100178.5270545,0.07666015625,0.104736328125,1.0120849609375,-0.42724609375,0.244140625,-0.244140625
1777100178.5270545,0.0770263671875,0.104248046875,1.01708984375,-0.9765625,0.67138671875,-0.244140625
1777100178.5270545,0.077880859375,0.103271484375,1.0228271484375,-1.3427734375,1.0986328125,-0.244140625
1777100178.5270545,0.0767822265625,0.102294921875,1.0263671875,-1.220703125,1.46484375,-0.244140625
1777100178.5270545,0.076171875,0.1009521484375,1.029296875,-1.953125,2.0751953125,-0.244140625
1777100178.5270545,0.076904296875,0.099609375,1.0296630859375,-1.77001953125,2.5634765625,-0.244140625
1777100178.5270545,0.076171875,0.099609375,1.02685546875,-1.3427734375,2.99072265625,-0.244140625
1777100178.5270545,0.076171875,0.0997314453125,1.024169921875,-1.220703125,3.47900390625,-0.18310546875
1777100178.5270545,0.0771484375,0.0999755859375,1.0223388671875,-1.40380859375,4.0283203125,-0.18310546875
1777100178.703541,0.076171875,0.099609375,1.0189208984375,-1.15966796875,4.638671875,-0.18310546875
1777100178.703541,0.0738525390625,0.0997314453125,1.007568359375,0.1220703125,4.94384765625,-0.18310546875
1777100178.703541,0.0706787109375,0.100830078125,0.98779296875,1.52587890625,4.94384765625,-0.18310546875
1777100178.703541,0.066650390625,0.1043701171875,0.9658203125,2.44140625,4.21142578125,-0.1220703125
1777100178.703541,0.06396484375,0.10693359375,0.9541015625,0.91552734375,3.2958984375,0.732421875
1777100178.703541,0.0654296875,0.1053466796875,0.9599609375,-0.3662109375,2.62451171875,0.79345703125
1777100178.703541,0.064453125,0.1024169921875,0.9737548828125,-1.64794921875,2.25830078125,-0.30517578125
1777100178.703541,0.0616455078125,0.0943603515625,0.9892578125,-4.08935546875,2.3193359375,-0.244140625
1777100178.703541,0.06201171875,0.0894775390625,0.996826171875,-1.5869140625,1.953125,-0.18310546875
1777100178.703541,0.061767578125,0.0966796875,0.993408203125,2.25830078125,1.220703125,-0.18310546875
1777100178.703541,0.0615234375,0.1055908203125,0.9908447265625,2.25830078125,0.67138671875,-0.244140625
1777100178.703541,0.063720703125,0.1077880859375,0.9947509765625,-0.244140625,0.244140625,-0.244140625
1777100178.703541,0.065185546875,0.1038818359375,1.0047607421875,-1.708984375,0.18310546875,-0.30517578125
1777100178.703541,0.062744140625,0.0860595703125,0.9962158203125,-0.732421875,-0.06103515625,-0.244140625
1777100178.703541,0.0592041015625,0.0821533203125,0.984375,0.54931640625,-0.8544921875,0.18310546875
1777100178.703541,0.0618896484375,0.1072998046875,0.98876953125,2.74658203125,-1.708984375,0.0
1777100178.703541,0.0653076171875,0.1119384765625,0.9981689453125,0.91552734375,-1.8310546875,-0.18310546875
1777100178.703541,0.06689453125,0.10107421875,1.0081787109375,-0.54931640625,-1.46484375,-0.06103515625
1777100178.703541,0.0677490234375,0.101806640625,1.01318359375,-1.28173828125,-0.9765625,-0.1220703125
1777100178.703541,0.0650634765625,0.1009521484375,1.01513671875,-1.03759765625,-0.732421875,-0.18310546875
1777100178.867126,0.064453125,0.0970458984375,1.012939453125,0.48828125,-0.67138671875,-0.18310546875
1777100178.867126,0.0650634765625,0.1002197265625,1.0074462890625,1.77001953125,-0.67138671875,-0.18310546875
1777100178.867126,0.06689453125,0.103271484375,1.001708984375,1.220703125,-0.67138671875,-0.1220703125
1777100178.867126,0.0684814453125,0.1002197265625,1.002197265625,0.42724609375,-0.54931640625,-0.18310546875
1777100178.867126,0.067626953125,0.098876953125,1.00390625,0.244140625,-0.30517578125,-0.18310546875
1777100178.867126,0.06640625,0.0986328125,1.0025634765625,-0.1220703125,-0.18310546875,-0.18310546875
1777100178.867126,0.0657958984375,0.095458984375,1.0035400390625,0.0,-0.1220703125,-0.244140625
1777100178.867126,0.064697265625,0.094970703125,1.0048828125,1.15966796875,-0.18310546875,-0.18310546875
1777100178.867126,0.064208984375,0.099365234375,1.002685546875,1.40380859375,-0.244140625,-0.18310546875
1777100178.867126,0.0648193359375,0.1009521484375,1.001708984375,0.3662109375,-0.30517578125,-0.18310546875
1777100178.867126,0.0648193359375,0.098388671875,1.00439453125,-0.30517578125,-0.42724609375,-0.18310546875
1777100178.867126,0.0648193359375,0.096923828125,1.0059814453125,0.244140625,-0.54931640625,-0.1220703125
1777100178.867126,0.06396484375,0.0986328125,1.003662109375,1.0986328125,-0.732421875,-0.1220703125
1777100178.867126,0.0634765625,0.1011962890625,0.999755859375,1.0986328125,-0.8544921875,-0.1220703125
1777100178.867126,0.06396484375,0.102294921875,0.9990234375,0.3662109375,-0.9765625,-0.1220703125
1777100178.867126,0.06396484375,0.1011962890625,1.0015869140625,-0.244140625,-1.03759765625,-0.18310546875
1777100178.867126,0.0648193359375,0.09912109375,1.0037841796875,-0.18310546875,-1.03759765625,-0.18310546875
1777100178.867126,0.0660400390625,0.0980224609375,1.0047607421875,0.18310546875,-0.9765625,-0.18310546875
1777100178.867126,0.066650390625,0.097412109375,1.005615234375,0.48828125,-0.91552734375,-0.18310546875
1777100178.867126,0.0677490234375,0.096923828125,1.006103515625,0.8544921875,-0.79345703125,-0.1220703125
1777100179.032505,0.0682373046875,0.09814453125,1.0054931640625,0.9765625,-0.67138671875,-0.18310546875
1777100179.032505,0.0684814453125,0.099609375,1.00439453125,0.48828125,-0.54931640625,-0.18310546875
1777100179.032505,0.068359375,0.09912109375,1.0047607421875,0.244140625,-0.48828125,-0.18310546875
1777100179.032505,0.0672607421875,0.098876953125,1.0064697265625,0.3662109375,-0.42724609375,-0.1220703125
1777100179.032505,0.067138671875,0.0994873046875,1.0069580078125,0.6103515625,-0.30517578125,-0.1220703125
1777100179.032505,0.06689453125,0.0987548828125,1.0081787109375,0.54931640625,-0.244140625,-0.18310546875
1777100179.032505,0.065673828125,0.098388671875,1.0093994140625,0.42724609375,-0.1220703125,-0.18310546875
1777100179.032505,0.065185546875,0.0985107421875,1.009521484375,0.3662109375,-0.1220703125,-0.18310546875
1777100179.032505,0.063720703125,0.0972900390625,1.0091552734375,0.244140625,-0.18310546875,-0.18310546875
1777100179.032505,0.0625,0.0966796875,1.0076904296875,0.30517578125,-0.244140625,-0.18310546875
1777100179.2000368,0.0621337890625,0.096435546875,1.0054931640625,0.30517578125,-0.3662109375,-0.18310546875
1777100179.2000368,0.060791015625,0.095458984375,1.002685546875,0.42724609375,-0.42724609375,-0.18310546875
1777100179.2000368,0.0606689453125,0.0955810546875,0.9990234375,0.6103515625,-0.48828125,-0.18310546875
1777100179.2000368,0.0615234375,0.0970458984375,0.9957275390625,1.03759765625,-0.6103515625,-0.18310546875
1777100179.2000368,0.0634765625,0.099853515625,0.9930419921875,1.03759765625,-0.732421875,-0.18310546875
1777100179.2000368,0.065673828125,0.101318359375,0.993408203125,0.244140625,-0.79345703125,-0.18310546875
1777100179.2000368,0.0672607421875,0.099853515625,0.998291015625,-0.06103515625,-0.8544921875,-0.18310546875
1777100179.2000368,0.068359375,0.0999755859375,1.0025634765625,0.0,-0.8544921875,-0.18310546875
1777100179.2000368,0.068603515625,0.1007080078125,1.006103515625,-0.1220703125,-0.79345703125,-0.18310546875
1777100179.2000368,0.071533203125,0.0958251953125,1.0057373046875,-0.06103515625,-0.48828125,-0.18310546875
1777100179.2000368,0.067138671875,0.0843505859375,0.9189453125,15.56396484375,2.38037109375,1.5869140625
1777100179.2000368,0.0643310546875,0.120849609375,0.9287109375,11.8408203125,-5.18798828125,1.3427734375
1777100179.2000368,0.0576171875,0.12890625,0.9852294921875,-5.31005859375,0.06103515625,-0.06103515625
1777100179.2000368,0.0662841796875,0.114990234375,1.0230712890625,-11.71875,-3.47900390625,-0.732421875
1777100179.2000368,0.0765380859375,0.0982666015625,1.1219482421875,-20.99609375,-0.8544921875,-1.64794921875
1777100179.2000368,0.0594482421875,0.0643310546875,1.144775390625,-11.962890625,0.18310546875,-2.0751953125
1777100179.2000368,0.066650390625,0.072998046875,1.1292724609375,-3.0517578125,0.9765625,-0.30517578125
1777100179.2000368,0.076171875,0.078369140625,1.06591796875,2.8076171875,2.25830078125,-0.244140625
1777100179.2000368,0.06689453125,0.089111328125,0.9871826171875,8.1787109375,1.953125,-0.91552734375
1777100179.2000368,0.0615234375,0.0938720703125,0.93408203125,9.033203125,1.28173828125,-0.30517578125
1777100179.3711922,0.0582275390625,0.093994140625,0.901611328125,9.21630859375,0.244140625,0.244140625
1777100179.3711922,0.0594482421875,0.1064453125,0.8946533203125,8.30078125,-1.0986328125,1.220703125
1777100179.3711922,0.0614013671875,0.119873046875,0.9111328125,2.5634765625,-2.0751953125,0.06103515625
1777100179.3711922,0.0615234375,0.121826171875,0.9542236328125,-8.6669921875,-2.5634765625,-0.244140625
1777100179.3711922,0.065673828125,0.1058349609375,1.0140380859375,-16.2353515625,-2.25830078125,-0.244140625
1777100179.3711922,0.0704345703125,0.0823974609375,1.068115234375,-15.625,-1.46484375,-0.244140625
1777100179.3711922,0.07177734375,0.0638427734375,1.095947265625,-5.67626953125,-0.6103515625,-0.244140625
1777100179.3711922,0.0697021484375,0.0693359375,1.078125,6.9580078125,0.0,-0.3662109375
1777100179.3711922,0.0679931640625,0.093994140625,1.0283203125,10.8642578125,0.244140625,-0.1220703125
1777100179.3711922,0.066650390625,0.1063232421875,0.9910888671875,7.32421875,0.1220703125,-0.18310546875
1777100179.3711922,0.06396484375,0.1051025390625,0.978759765625,3.90625,-0.1220703125,-0.244140625
1777100179.3711922,0.0615234375,0.105224609375,0.9771728515625,1.0986328125,-0.30517578125,-0.244140625
1777100179.3721921,0.0611572265625,0.1051025390625,0.9840087890625,-2.25830078125,-0.3662109375,-0.30517578125
1777100179.3721921,0.0621337890625,0.0999755859375,0.9991455078125,-4.39453125,-0.244140625,-0.30517578125
1777100179.3721921,0.063232421875,0.093505859375,1.0147705078125,-3.90625,-0.18310546875,-0.30517578125
1777100179.3721921,0.0650634765625,0.087646484375,1.02490234375,-1.220703125,-0.1220703125,-0.244140625
1777100179.3721921,0.0672607421875,0.0870361328125,1.023193359375,2.8076171875,-0.18310546875,-0.18310546875
1777100179.3721921,0.0682373046875,0.093017578125,1.0087890625,4.150390625,-0.18310546875,-0.18310546875
1777100179.3721921,0.0679931640625,0.0975341796875,0.9954833984375,1.89208984375,-0.244140625,-0.30517578125
1777100179.3721921,0.0670166015625,0.095458984375,0.9920654296875,-0.67138671875,-0.30517578125,-0.30517578125
1777100179.5372248,0.0650634765625,0.091064453125,0.995361328125,-1.3427734375,-0.30517578125,-0.30517578125
1777100179.5372248,0.062255859375,0.088623046875,0.999267578125,-0.42724609375,-0.30517578125,-0.30517578125
1777100179.5372248,0.060791015625,0.090087890625,1.002685546875,0.79345703125,-0.3662109375,-0.30517578125
1777100179.5382242,0.0616455078125,0.0938720703125,1.0067138671875,0.91552734375,-0.30517578125,-0.244140625
1777100179.5382242,0.0623779296875,0.0966796875,1.0107421875,0.6103515625,-0.244140625,-0.244140625
1777100179.5382242,0.0634765625,0.096923828125,1.0137939453125,-0.18310546875,-0.1220703125,-0.244140625
1777100179.5382242,0.065673828125,0.0950927734375,1.014892578125,-0.42724609375,0.0,-0.244140625
1777100179.5382242,0.067138671875,0.09375,1.01171875,0.3662109375,0.1220703125,-0.244140625
1777100179.5382242,0.0677490234375,0.0947265625,1.0048828125,1.52587890625,0.06103515625,-0.244140625
1777100179.5382242,0.0673828125,0.0977783203125,0.9959716796875,2.197265625,0.0,-0.244140625
1777100179.5382242,0.0655517578125,0.098388671875,0.989501953125,1.708984375,-0.06103515625,-0.244140625
1777100179.5382242,0.063720703125,0.0975341796875,0.988525390625,0.67138671875,-0.18310546875,-0.244140625
1777100179.5382242,0.0621337890625,0.0960693359375,0.99267578125,-0.67138671875,-0.244140625,-0.244140625
1777100179.5382242,0.0614013671875,0.0921630859375,1.0008544921875,-1.3427734375,-0.30517578125,-0.244140625
1777100179.5382242,0.0618896484375,0.0888671875,1.00927734375,-1.15966796875,-0.30517578125,-0.244140625
1777100179.5382242,0.063232421875,0.087646484375,1.0152587890625,-0.42724609375,-0.3662109375,-0.244140625
1777100179.5382242,0.064453125,0.0872802734375,1.0179443359375,0.244140625,-0.30517578125,-0.18310546875
1777100179.5382242,0.0648193359375,0.08642578125,1.0162353515625,0.79345703125,-0.244140625,-0.244140625
1777100179.5382242,0.0643310546875,0.086669921875,1.010986328125,0.79345703125,-0.18310546875,-0.244140625
1777100179.5382242,0.0638427734375,0.0882568359375,1.00537109375,0.8544921875,-0.244140625,-0.18310546875
1777100179.6937106,0.06298828125,0.08935546875,1.000732421875,0.732421875,-0.18310546875,-0.18310546875
1777100179.6937106,0.0626220703125,0.0906982421875,0.9974365234375,0.91552734375,-0.18310546875,-0.18310546875
1777100179.6937106,0.062744140625,0.0928955078125,0.9952392578125,1.0986328125,-0.1220703125,-0.18310546875
1777100179.6937106,0.06298828125,0.095458984375,0.99462890625,0.91552734375,-0.1220703125,-0.18310546875
1777100179.6937106,0.0626220703125,0.0982666015625,0.9976806640625,0.3662109375,-0.18310546875,-0.244140625
1777100179.6937106,0.0626220703125,0.099609375,1.0032958984375,-0.42724609375,-0.244140625,-0.244140625
1777100179.694709,0.0631103515625,0.0987548828125,1.010498046875,-0.79345703125,-0.30517578125,-0.30517578125
1777100179.694709,0.0634765625,0.09619140625,1.016845703125,-0.54931640625,-0.244140625,-0.30517578125
1777100179.694709,0.0640869140625,0.094482421875,1.0179443359375,0.1220703125,-0.18310546875,-0.244140625
1777100179.694709,0.0645751953125,0.09423828125,1.0150146484375,0.6103515625,-0.1220703125,-0.244140625
1777100179.908012,0.064453125,0.093505859375,1.0103759765625,0.8544921875,0.0,-0.30517578125
1777100179.908012,0.0638427734375,0.0924072265625,1.0047607421875,0.91552734375,0.06103515625,-0.244140625
1777100179.908012,0.06396484375,0.0924072265625,0.999267578125,0.9765625,0.0,-0.30517578125
1777100179.908012,0.0633544921875,0.092529296875,0.9957275390625,0.54931640625,-0.06103515625,-0.244140625
1777100179.908012,0.062744140625,0.0919189453125,0.9954833984375,0.244140625,-0.1220703125,-0.30517578125
1777100179.908012,0.0626220703125,0.0919189453125,0.9976806640625,0.30517578125,-0.18310546875,-0.30517578125
1777100179.908012,0.062255859375,0.092529296875,1.000244140625,0.42724609375,-0.244140625,-0.244140625
1777100179.908012,0.06201171875,0.0926513671875,1.0013427734375,0.42724609375,-0.30517578125,-0.244140625
1777100179.908012,0.062255859375,0.0931396484375,1.0015869140625,0.54931640625,-0.30517578125,-0.244140625
1777100179.908012,0.062255859375,0.09326171875,1.0013427734375,0.48828125,-0.42724609375,-0.244140625
1777100179.908012,0.061279296875,0.09130859375,1.0015869140625,0.3662109375,-0.48828125,-0.244140625
1777100179.908012,0.0616455078125,0.090087890625,1.0015869140625,0.54931640625,-0.54931640625,-0.18310546875
1777100179.908012,0.0626220703125,0.0902099609375,1.0015869140625,0.48828125,-0.6103515625,-0.18310546875
1777100179.908012,0.0616455078125,0.09033203125,1.0020751953125,0.42724609375,-0.67138671875,-0.18310546875
1777100179.908012,0.0606689453125,0.08935546875,1.002685546875,0.3662109375,-0.732421875,-0.18310546875
1777100179.908012,0.0609130859375,0.0899658203125,1.004638671875,0.48828125,-0.732421875,-0.18310546875
1777100179.908012,0.06103515625,0.0919189453125,1.0062255859375,0.54931640625,-0.67138671875,-0.18310546875
1777100179.908012,0.0606689453125,0.0924072265625,1.0067138671875,0.79345703125,-0.732421875,-0.244140625
1777100179.908012,0.061279296875,0.0938720703125,1.0064697265625,1.0986328125,-0.67138671875,-0.18310546875
1777100179.908012,0.061767578125,0.095703125,1.0040283203125,1.220703125,-0.732421875,-0.18310546875
1777100180.0897744,0.061767578125,0.096435546875,1.001953125,0.732421875,-0.732421875,-0.18310546875
1777100180.0897744,0.0621337890625,0.0960693359375,1.0035400390625,0.18310546875,-0.732421875,-0.18310546875
1777100180.0897744,0.0626220703125,0.09423828125,1.007080078125,0.1220703125,-0.732421875,-0.18310546875
1777100180.0897744,0.0625,0.0938720703125,1.009033203125,0.48828125,-0.67138671875,-0.244140625
1777100180.0897744,0.062744140625,0.095458984375,1.0087890625,0.3662109375,-0.6103515625,-0.244140625
1777100180.0897744,0.0618896484375,0.0947265625,1.00927734375,0.30517578125,-0.6103515625,-0.244140625
1777100180.0897744,0.0579833984375,0.0877685546875,0.99267578125,2.13623046875,-0.9765625,-0.244140625
1777100180.0897744,0.0594482421875,0.0958251953125,0.9716796875,6.04248046875,-2.197265625,-0.244140625
1777100180.0897744,0.06591796875,0.108154296875,0.9874267578125,-0.67138671875,-2.13623046875,-0.18310546875
1777100180.0897744,0.066650390625,0.100341796875,1.0140380859375,-4.39453125,-1.40380859375,-0.244140625
1777100180.0897744,0.0657958984375,0.08740234375,1.027099609375,-2.25830078125,-0.91552734375,-0.3662109375
1777100180.0897744,0.064208984375,0.0841064453125,1.0203857421875,1.28173828125,-0.67138671875,-0.244140625
1777100180.0897744,0.0614013671875,0.092041015625,1.0010986328125,2.685546875,-1.15966796875,-0.18310546875
1777100180.0897744,0.0628662109375,0.093505859375,0.998046875,1.3427734375,-1.5869140625,-0.18310546875
1777100180.0897744,0.0662841796875,0.0889892578125,1.003173828125,1.220703125,-1.5869140625,-0.244140625
1777100180.0897744,0.067626953125,0.0921630859375,1.0057373046875,1.89208984375,-1.40380859375,-0.18310546875
1777100180.0897744,0.06591796875,0.09716796875,1.0050048828125,0.0,-1.03759765625,-0.244140625
1777100180.0897744,0.0640869140625,0.0928955078125,1.009521484375,-1.89208984375,-0.79345703125,-0.244140625
1777100180.0897744,0.0643310546875,0.0869140625,1.0185546875,-0.3662109375,-0.67138671875,-0.18310546875
1777100180.0897744,0.064697265625,0.0892333984375,1.01806640625,2.3193359375,-0.6103515625,-0.18310546875
1777100180.2553887,0.0640869140625,0.0950927734375,1.010498046875,2.38037109375,-0.6103515625,-0.1220703125
1777100180.2553887,0.0640869140625,0.097412109375,1.0059814453125,0.244140625,-0.48828125,-0.18310546875
1777100180.2553887,0.0648193359375,0.0938720703125,1.00634765625,-0.732421875,-0.42724609375,-0.244140625
1777100180.2553887,0.0643310546875,0.0904541015625,1.0048828125,0.48828125,-0.42724609375,-0.18310546875
1777100180.2553887,0.0643310546875,0.091552734375,1.0,1.708984375,-0.48828125,-0.18310546875
1777100180.2553887,0.0654296875,0.0950927734375,0.99462890625,1.8310546875,-0.6103515625,-0.18310546875
1777100180.2553887,0.0650634765625,0.09765625,0.994140625,0.6103515625,-0.67138671875,-0.244140625
1777100180.2553887,0.0645751953125,0.096435546875,0.9996337890625,-0.18310546875,-0.79345703125,-0.18310546875
1777100180.2553887,0.06494140625,0.09423828125,1.0050048828125,-0.18310546875,-0.8544921875,-0.244140625
1777100180.2553887,0.0650634765625,0.0936279296875,1.008056640625,0.18310546875,-0.91552734375,-0.244140625
1777100180.2553887,0.064697265625,0.0926513671875,1.0101318359375,0.48828125,-0.9765625,-0.244140625
1777100180.2553887,0.064697265625,0.0927734375,1.009033203125,1.52587890625,-0.91552734375,-0.244140625
1777100180.2553887,0.0648193359375,0.0963134765625,1.0047607421875,1.8310546875,-0.91552734375,-0.244140625
1777100180.2553887,0.06494140625,0.096923828125,1.003662109375,0.0,-0.8544921875,-0.244140625
1777100180.2553887,0.06591796875,0.0921630859375,1.0052490234375,-0.732421875,-0.79345703125,-0.244140625
1777100180.2553887,0.06591796875,0.08837890625,1.0057373046875,0.48828125,-0.79345703125,-0.18310546875
1777100180.2553887,0.0662841796875,0.0894775390625,1.0052490234375,1.40380859375,-0.8544921875,-0.18310546875
1777100180.2553887,0.067626953125,0.093017578125,1.00390625,1.15966796875,-0.732421875,-0.18310546875
1777100180.2553887,0.0667724609375,0.09375,1.00244140625,0.48828125,-0.67138671875,-0.244140625
1777100180.2553887,0.0655517578125,0.0916748046875,1.0013427734375,0.54931640625,-0.732421875,-0.244140625
1777100180.436638,0.0657958984375,0.0916748046875,0.9986572265625,1.64794921875,-0.9765625,-0.244140625
1777100180.436638,0.0655517578125,0.0947265625,0.9947509765625,1.40380859375,-1.15966796875,-0.244140625
1777100180.436638,0.064697265625,0.09521484375,0.9925537109375,0.79345703125,-1.28173828125,-0.244140625
1777100180.436638,0.0648193359375,0.0947265625,0.99267578125,0.91552734375,-1.52587890625,-0.244140625
1777100180.436638,0.0653076171875,0.0943603515625,0.994384765625,1.0986328125,-1.64794921875,-0.244140625
1777100180.436638,0.06494140625,0.09375,0.99267578125,1.46484375,-1.89208984375,-0.18310546875
1777100180.436638,0.065673828125,0.0946044921875,0.9857177734375,1.953125,-2.38037109375,-0.18310546875
1777100180.436638,0.0667724609375,0.0947265625,0.9744873046875,2.9296875,-3.173828125,-0.18310546875
1777100180.436638,0.0665283203125,0.0972900390625,0.966064453125,4.0283203125,-4.0283203125,-0.244140625
1777100180.436638,0.0672607421875,0.1021728515625,0.9669189453125,2.99072265625,-4.69970703125,-0.244140625
1777100180.436638,0.0689697265625,0.1046142578125,0.98046875,0.3662109375,-4.94384765625,-0.30517578125
1777100180.436638,0.072265625,0.099853515625,1.00390625,-1.64794921875,-4.69970703125,-0.3662109375
1777100180.436638,0.0750732421875,0.0987548828125,1.0263671875,-0.1220703125,-4.39453125,-1.03759765625
1777100180.436638,0.0775146484375,0.102783203125,1.0361328125,1.89208984375,-4.0283203125,-2.38037109375
1777100180.436638,0.07666015625,0.1033935546875,1.036865234375,1.03759765625,-3.96728515625,-5.4931640625
1777100180.436638,0.065185546875,0.10009765625,1.043701171875,-2.86865234375,-3.47900390625,-6.2255859375
1777100180.436638,0.06591796875,0.08984375,1.060546875,-5.126953125,-2.0751953125,-1.40380859375
1777100180.436638,0.0762939453125,0.080810546875,1.0755615234375,-2.3193359375,-0.91552734375,-0.244140625
1777100180.436638,0.0772705078125,0.083251953125,1.0654296875,2.62451171875,0.1220703125,-0.18310546875
1777100180.436638,0.0751953125,0.09228515625,1.033935546875,4.08935546875,0.79345703125,-0.18310546875
1777100180.6089914,0.072509765625,0.09619140625,1.0074462890625,1.5869140625,1.03759765625,-0.06103515625
1777100180.6089914,0.072998046875,0.0947265625,1.0010986328125,-0.8544921875,1.0986328125,0.18310546875
1777100180.6089914,0.0748291015625,0.0931396484375,1.0078125,-1.52587890625,1.46484375,-0.06103515625
1777100180.6089914,0.0750732421875,0.093017578125,1.014892578125,-1.3427734375,2.0751953125,-0.18310546875
1777100180.6100032,0.07373046875,0.0931396484375,1.019775390625,-0.91552734375,2.74658203125,-0.244140625
1777100180.6100032,0.07177734375,0.094482421875,1.0196533203125,-0.30517578125,3.35693359375,-0.1220703125
1777100180.6100032,0.0699462890625,0.0953369140625,1.010498046875,0.732421875,3.41796875,-0.18310546875
1777100180.6100032,0.0677490234375,0.095703125,0.9901123046875,2.197265625,2.9296875,-0.244140625
1777100180.6100032,0.0650634765625,0.0992431640625,0.9735107421875,1.708984375,2.197265625,-0.244140625
1777100180.6100032,0.06494140625,0.099365234375,0.9716796875,-0.48828125,1.5869140625,-0.244140625
1777100180.6100032,0.0670166015625,0.0955810546875,0.981689453125,-1.40380859375,1.220703125,-0.244140625
1777100180.6100032,0.0675048828125,0.093505859375,0.9962158203125,-1.5869140625,1.15966796875,-0.30517578125
1777100180.6100032,0.0650634765625,0.0909423828125,1.0037841796875,-0.79345703125,1.15966796875,-0.30517578125
1777100180.6100032,0.0633544921875,0.09130859375,1.003662109375,0.3662109375,0.8544921875,-0.244140625
1777100180.6100032,0.0631103515625,0.09423828125,1.0010986328125,0.42724609375,0.3662109375,-0.244140625
1777100180.6100032,0.06494140625,0.0936279296875,0.9967041015625,0.18310546875,-0.06103515625,-0.244140625
1777100180.6100032,0.06689453125,0.092529296875,0.99365234375,0.244140625,-0.42724609375,-0.18310546875
1777100180.6100032,0.0679931640625,0.0909423828125,0.98974609375,0.1220703125,-0.732421875,-0.18310546875
1777100180.6100032,0.0697021484375,0.0926513671875,0.9813232421875,2.44140625,-1.15966796875,-0.1220703125
1777100180.6100032,0.068603515625,0.0970458984375,0.977294921875,2.50244140625,-1.5869140625,-0.18310546875
1777100180.794105,0.0673828125,0.099853515625,0.983642578125,0.48828125,-1.708984375,-0.18310546875
1777100180.794105,0.067626953125,0.099609375,1.003662109375,-2.3193359375,-1.46484375,-0.244140625
1777100180.794105,0.0673828125,0.0924072265625,1.024658203125,-2.50244140625,-0.91552734375,-0.30517578125
1777100180.794105,0.0657958984375,0.08642578125,1.0302734375,0.244140625,-0.6103515625,-0.244140625
1777100180.794105,0.06494140625,0.08984375,1.0234375,2.50244140625,-0.54931640625,-0.18310546875
1777100180.794105,0.0670166015625,0.0953369140625,1.01220703125,2.44140625,-0.67138671875,-0.18310546875
1777100180.794105,0.0687255859375,0.09716796875,1.0032958984375,1.46484375,-0.67138671875,-0.244140625
1777100180.794105,0.068603515625,0.0972900390625,0.9945068359375,1.28173828125,-0.79345703125,-0.244140625
1777100180.794105,0.0682373046875,0.0955810546875,0.98681640625,1.15966796875,-1.03759765625,-0.244140625
1777100180.794105,0.0677490234375,0.09375,0.984130859375,1.46484375,-1.40380859375,-0.244140625
1777100180.9841406,0.06787109375,0.09423828125,0.983154296875,1.52587890625,-1.77001953125,-0.244140625
1777100180.9841406,0.0673828125,0.094482421875,0.984619140625,0.91552734375,-2.0751953125,-0.244140625
1777100180.9841406,0.0660400390625,0.0927734375,0.9915771484375,0.3662109375,-2.38037109375,-0.18310546875
1777100180.9841406,0.0673828125,0.0919189453125,1.0018310546875,-0.18310546875,-2.5634765625,-0.1220703125
1777100180.9841406,0.0693359375,0.0924072265625,1.0128173828125,0.244140625,-2.62451171875,-0.18310546875
1777100180.9841406,0.0701904296875,0.0936279296875,1.0208740234375,0.91552734375,-2.44140625,-0.18310546875
1777100180.9841406,0.070556640625,0.0955810546875,1.0203857421875,1.89208984375,-2.25830078125,-0.18310546875
1777100180.9841406,0.0699462890625,0.0987548828125,1.0118408203125,2.38037109375,-2.197265625,-0.244140625
1777100180.9841406,0.0687255859375,0.1005859375,1.0006103515625,2.3193359375,-2.38037109375,-0.244140625
1777100180.9841406,0.0694580078125,0.1004638671875,0.9918212890625,2.0751953125,-2.62451171875,-0.244140625
1777100180.9841406,0.072265625,0.099853515625,0.989013671875,1.89208984375,-2.86865234375,-0.30517578125
1777100180.9841406,0.0738525390625,0.0986328125,0.9910888671875,1.40380859375,-2.9296875,-0.244140625
1777100180.9841406,0.073974609375,0.09619140625,0.9970703125,0.8544921875,-2.9296875,-0.30517578125
1777100180.9841406,0.0743408203125,0.0936279296875,1.0087890625,-0.3662109375,-2.62451171875,-0.30517578125
1777100180.9841406,0.074951171875,0.091064453125,1.021484375,-0.732421875,-2.25830078125,-0.18310546875
1777100180.9841406,0.074951171875,0.0902099609375,1.0277099609375,0.732421875,-1.89208984375,-0.244140625
1777100180.9841406,0.0736083984375,0.0928955078125,1.027099609375,2.13623046875,-1.52587890625,-0.244140625
1777100180.9841406,0.07275390625,0.095947265625,1.024169921875,1.64794921875,-1.0986328125,-0.244140625
1777100180.9841406,0.07373046875,0.096435546875,1.022216796875,0.79345703125,-0.732421875,-0.244140625
1777100180.9841406,0.0738525390625,0.0966796875,1.017822265625,1.46484375,-0.48828125,-0.244140625
1777100180.9841406,0.0721435546875,0.098388671875,1.0107421875,1.953125,-0.42724609375,-0.244140625
1777100180.9841406,0.071044921875,0.100341796875,1.0054931640625,0.9765625,-0.3662109375,-0.244140625
1777100180.9841406,0.0716552734375,0.099365234375,1.00732421875,-0.79345703125,-0.30517578125,-0.244140625
1777100180.9841406,0.0721435546875,0.0955810546875,1.015625,-1.220703125,-0.18310546875,-0.244140625
1777100180.9841406,0.072265625,0.095703125,1.02294921875,-0.42724609375,0.0,-0.244140625
1777100180.9841406,0.0736083984375,0.09814453125,1.026123046875,-0.06103515625,0.48828125,-0.244140625
1777100180.9841406,0.07373046875,0.098388671875,1.030029296875,-1.0986328125,1.03759765625,-0.30517578125
1777100180.9841406,0.0738525390625,0.095703125,1.0322265625,-1.28173828125,1.64794921875,-0.30517578125
1777100180.9841406,0.0726318359375,0.0911865234375,1.0274658203125,-1.28173828125,2.197265625,-0.244140625
1777100180.9841406,0.07177734375,0.0938720703125,1.0235595703125,-0.54931640625,2.44140625,-0.244140625
1777100181.152883,0.072998046875,0.0941162109375,1.0162353515625,-1.0986328125,2.8076171875,-0.18310546875
1777100181.152883,0.0703125,0.0908203125,1.0047607421875,-0.48828125,2.8076171875,-0.18310546875
1777100181.152883,0.07177734375,0.090576171875,1.0020751953125,-1.52587890625,2.86865234375,-0.1220703125
1777100181.152883,0.07373046875,0.08935546875,1.0052490234375,-2.38037109375,3.173828125,-0.1220703125
1777100181.152883,0.0716552734375,0.0887451171875,1.0048828125,-1.0986328125,3.41796875,-0.1220703125
1777100181.152883,0.070556640625,0.0914306640625,0.9918212890625,1.77001953125,3.173828125,-0.18310546875
1777100181.152883,0.0670166015625,0.09619140625,0.9725341796875,2.86865234375,2.5634765625,-0.244140625
1777100181.152883,0.0648193359375,0.1011962890625,0.962158203125,1.5869140625,1.64794921875,-0.244140625
1777100181.152883,0.066162109375,0.1026611328125,0.9671630859375,-0.9765625,0.9765625,-0.244140625
1777100181.152883,0.066650390625,0.0986328125,0.981201171875,-1.52587890625,0.6103515625,-0.30517578125
1777100181.3355148,0.064208984375,0.094482421875,0.989501953125,-0.06103515625,0.42724609375,-0.30517578125
1777100181.3355148,0.0616455078125,0.0946044921875,0.9888916015625,0.9765625,0.0,-0.30517578125
1777100181.3355148,0.061767578125,0.0955810546875,0.98876953125,0.1220703125,-0.42724609375,-0.244140625
1777100181.3355148,0.0631103515625,0.092041015625,0.9971923828125,-1.15966796875,-0.732421875,-0.18310546875
1777100181.3355148,0.065185546875,0.0885009765625,1.010986328125,-1.220703125,-0.8544921875,-0.18310546875
1777100181.3355148,0.0665283203125,0.0882568359375,1.0169677734375,0.1220703125,-0.8544921875,-0.18310546875
1777100181.3355148,0.0662841796875,0.0894775390625,1.01416015625,1.03759765625,-0.79345703125,-0.18310546875
1777100181.3355148,0.0650634765625,0.0914306640625,1.0091552734375,1.28173828125,-0.8544921875,-0.18310546875
1777100181.3355148,0.06396484375,0.0943603515625,1.0045166015625,1.15966796875,-1.03759765625,-0.18310546875
1777100181.3355148,0.0645751953125,0.0968017578125,1.0037841796875,0.6103515625,-1.0986328125,-0.18310546875
1777100181.3355148,0.0655517578125,0.097412109375,1.004638671875,0.1220703125,-0.9765625,-0.18310546875
1777100181.3355148,0.06591796875,0.09619140625,1.0052490234375,-0.18310546875,-0.732421875,-0.18310546875
1777100181.3355148,0.065673828125,0.0943603515625,1.004638671875,0.54931640625,-0.54931640625,-0.244140625
1777100181.3355148,0.06591796875,0.0919189453125,1.002685546875,0.732421875,-0.48828125,-0.244140625
1777100181.3355148,0.06689453125,0.0914306640625,1.00244140625,0.06103515625,-0.42724609375,-0.244140625
1777100181.3355148,0.0675048828125,0.0899658203125,1.0050048828125,-0.42724609375,-0.3662109375,-0.244140625
1777100181.3355148,0.0673828125,0.0872802734375,1.007080078125,0.42724609375,-0.3662109375,-0.244140625
1777100181.3355148,0.0673828125,0.0887451171875,1.0059814453125,1.3427734375,-0.42724609375,-0.18310546875
1777100181.3355148,0.0675048828125,0.0919189453125,1.004638671875,1.03759765625,-0.42724609375,-0.244140625
1777100181.3355148,0.06689453125,0.092041015625,1.0069580078125,0.06103515625,-0.30517578125,-0.244140625
1777100181.518681,0.0662841796875,0.0916748046875,1.0089111328125,0.18310546875,-0.30517578125,-0.244140625
1777100181.518681,0.0653076171875,0.0921630859375,1.0079345703125,0.79345703125,-0.30517578125,-0.244140625
1777100181.518681,0.0645751953125,0.093017578125,1.0048828125,1.03759765625,-0.3662109375,-0.18310546875
1777100181.518681,0.065185546875,0.0950927734375,1.0010986328125,0.3662109375,-0.54931640625,-0.18310546875
1777100181.518681,0.0660400390625,0.093505859375,1.0015869140625,-0.18310546875,-0.6103515625,-0.18310546875
1777100181.518681,0.0660400390625,0.092529296875,1.0035400390625,0.18310546875,-0.732421875,-0.18310546875
1777100181.518681,0.066162109375,0.09326171875,1.004150390625,0.1220703125,-0.79345703125,-0.18310546875
1777100181.518681,0.0667724609375,0.09228515625,1.0035400390625,0.30517578125,-0.79345703125,-0.18310546875
1777100181.518681,0.067138671875,0.09130859375,1.0013427734375,1.15966796875,-0.8544921875,-0.18310546875
1777100181.518681,0.0665283203125,0.092529296875,0.9971923828125,1.40380859375,-0.91552734375,-0.18310546875
1777100181.518681,0.064697265625,0.09521484375,0.993896484375,1.0986328125,-1.0986328125,-0.18310546875
1777100181.518681,0.06640625,0.095703125,0.99853515625,0.0,-1.0986328125,-0.18310546875
1777100181.518681,0.0684814453125,0.093994140625,1.0086669921875,-0.3662109375,-0.9765625,-0.18310546875
1777100181.518681,0.0682373046875,0.0926513671875,1.0162353515625,0.06103515625,-0.67138671875,-0.244140625
1777100181.518681,0.0684814453125,0.091552734375,1.0206298828125,-0.1220703125,-0.30517578125,-0.244140625
1777100181.518681,0.067626953125,0.08984375,1.022216796875,0.0,-0.06103515625,-0.244140625
1777100181.518681,0.0670166015625,0.0888671875,1.01953125,0.732421875,0.06103515625,-0.244140625
1777100181.518681,0.0672607421875,0.08984375,1.0135498046875,1.220703125,0.1220703125,-0.244140625
1777100181.518681,0.0672607421875,0.092529296875,1.006103515625,1.3427734375,0.06103515625,-0.244140625
1777100181.518681,0.0662841796875,0.09375,0.998291015625,1.03759765625,0.0,-0.244140625
1777100181.7137558,0.0655517578125,0.092529296875,0.9935302734375,0.79345703125,-0.18310546875,-0.244140625
1777100181.7137558,0.06591796875,0.0931396484375,0.9930419921875,0.8544921875,-0.42724609375,-0.244140625
1777100181.7137558,0.0660400390625,0.094482421875,0.9954833984375,0.244140625,-0.54931640625,-0.18310546875
1777100181.7147558,0.065673828125,0.0926513671875,1.000244140625,-0.6103515625,-0.6103515625,-0.244140625
1777100181.7147558,0.0657958984375,0.0908203125,1.007080078125,-0.3662109375,-0.6103515625,-0.244140625
1777100181.7147558,0.0672607421875,0.091064453125,1.012939453125,0.244140625,-0.48828125,-0.244140625
1777100181.7147558,0.0673828125,0.091796875,1.013916015625,0.67138671875,-0.3662109375,-0.244140625
1777100181.7147558,0.06640625,0.092529296875,1.0107421875,0.6103515625,-0.244140625,-0.244140625
1777100181.7147558,0.066650390625,0.0926513671875,1.0064697265625,0.732421875,-0.244140625,-0.244140625
1777100181.7147558,0.0667724609375,0.0931396484375,1.0009765625,1.28173828125,-0.3662109375,-0.244140625
1777100181.7147558,0.0665283203125,0.0947265625,0.994873046875,1.3427734375,-0.54931640625,-0.244140625
1777100181.7147558,0.0665283203125,0.0950927734375,0.994384765625,0.48828125,-0.732421875,-0.244140625
1777100181.7147558,0.0665283203125,0.093017578125,0.9996337890625,0.0,-0.79345703125,-0.244140625
1777100181.7147558,0.0665283203125,0.0914306640625,1.00439453125,0.244140625,-0.732421875,-0.244140625
1777100181.7147558,0.066650390625,0.091064453125,1.005859375,0.54931640625,-0.732421875,-0.244140625
1777100181.7147558,0.0654296875,0.0904541015625,1.0050048828125,0.79345703125,-0.732421875,-0.18310546875
1777100181.7147558,0.064208984375,0.08984375,1.001220703125,1.220703125,-0.8544921875,-0.18310546875
1777100181.7147558,0.065185546875,0.089599609375,0.9935302734375,1.5869140625,-1.0986328125,-0.18310546875
1777100181.7147558,0.06689453125,0.090576171875,0.9835205078125,2.3193359375,-1.52587890625,-0.18310546875
1777100181.7147558,0.066650390625,0.0926513671875,0.968994140625,3.47900390625,-2.197265625,-0.18310546875
1777100181.9136398,0.0653076171875,0.0938720703125,0.95068359375,4.69970703125,-3.2958984375,-0.244140625
1777100181.9136398,0.0643310546875,0.095947265625,0.94140625,3.72314453125,-4.45556640625,-0.18310546875
1777100181.9136398,0.066162109375,0.0994873046875,0.9542236328125,0.6103515625,-5.37109375,-0.18310546875
1777100181.9136398,0.0701904296875,0.09814453125,0.9832763671875,-1.46484375,-5.615234375,-0.1220703125
1777100181.9136398,0.0709228515625,0.093505859375,1.015380859375,-0.9765625,-5.37109375,-0.244140625
1777100181.9136398,0.0706787109375,0.0936279296875,1.04150390625,0.48828125,-4.82177734375,-0.244140625
1777100181.9136398,0.0733642578125,0.099609375,1.059326171875,0.67138671875,-4.0283203125,-0.244140625
1777100181.9136398,0.0760498046875,0.09912109375,1.0673828125,0.244140625,-3.11279296875,-0.48828125
1777100181.9136398,0.075927734375,0.096435546875,1.06396484375,1.89208984375,-2.3193359375,-0.6103515625
1777100181.9136398,0.0762939453125,0.0982666015625,1.0498046875,2.8076171875,-1.77001953125,-0.244140625
1777100181.9136398,0.0767822265625,0.0986328125,1.02783203125,2.9296875,-1.40380859375,-0.244140625
1777100181.9136398,0.0753173828125,0.096923828125,1.0103759765625,1.5869140625,-1.15966796875,-0.244140625
1777100181.9136398,0.074462890625,0.094482421875,1.0059814453125,-0.1220703125,-0.8544921875,-0.244140625
1777100181.9136398,0.0751953125,0.091796875,1.0106201171875,-0.9765625,-0.42724609375,-0.18310546875
1777100181.9136398,0.0748291015625,0.087646484375,1.0152587890625,-0.6103515625,0.06103515625,-0.18310546875
1777100181.9136398,0.073486328125,0.08740234375,1.01171875,1.0986328125,0.42724609375,-0.18310546875
1777100181.9136398,0.07275390625,0.092529296875,0.9979248046875,2.62451171875,0.3662109375,-0.18310546875
1777100181.9146388,0.0728759765625,0.0965576171875,0.9842529296875,2.197265625,0.06103515625,-0.244140625
1777100181.9146388,0.07373046875,0.097900390625,0.9835205078125,0.244140625,-0.1220703125,-0.244140625
1777100181.9146388,0.0753173828125,0.0970458984375,0.9945068359375,-1.28173828125,-0.1220703125,-0.244140625
1777100182.10734,0.074951171875,0.092529296875,1.006591796875,-0.67138671875,0.0,-0.244140625
1777100182.10734,0.0721435546875,0.0908203125,1.010009765625,1.03759765625,0.0,-0.18310546875
1777100182.10734,0.070068359375,0.0938720703125,1.006103515625,1.03759765625,-0.1220703125,-0.18310546875
1777100182.10734,0.06884765625,0.0943603515625,1.0089111328125,-0.9765625,-0.30517578125,-0.18310546875
1777100182.10734,0.0703125,0.092041015625,1.0211181640625,-2.38037109375,-0.1220703125,-0.1220703125
1777100182.10734,0.0736083984375,0.0908203125,1.02880859375,-1.03759765625,0.1220703125,-0.1220703125
1777100182.10734,0.0750732421875,0.09619140625,1.0123291015625,3.35693359375,0.06103515625,-0.18310546875
1777100182.10734,0.07373046875,0.1065673828125,0.9879150390625,5.615234375,-0.3662109375,-0.06103515625
1777100182.10734,0.07177734375,0.1080322265625,0.97998046875,0.3662109375,-0.48828125,0.0
1777100182.10734,0.0723876953125,0.1011962890625,0.98876953125,-3.173828125,-0.54931640625,-0.18310546875
1777100182.10734,0.07421875,0.092529296875,1.011962890625,-3.35693359375,-0.244140625,-0.244140625
1777100182.10734,0.0718994140625,0.08544921875,1.0216064453125,0.30517578125,0.1220703125,-0.18310546875
1777100182.10734,0.0701904296875,0.0909423828125,1.006591796875,2.9296875,0.18310546875,-0.1220703125
1777100182.10734,0.0711669921875,0.0966796875,0.995361328125,0.54931640625,0.06103515625,-0.18310546875
1777100182.10734,0.0736083984375,0.09375,0.99951171875,-0.91552734375,0.06103515625,-0.18310546875
1777100182.10734,0.074951171875,0.09375,1.005126953125,-0.06103515625,0.06103515625,-0.244140625
1777100182.10734,0.0732421875,0.0948486328125,1.007080078125,0.48828125,0.18310546875,-0.244140625
1777100182.10734,0.072021484375,0.095458984375,1.0064697265625,1.5869140625,0.244140625,-0.244140625
1777100182.10734,0.0711669921875,0.0987548828125,1.0029296875,1.46484375,0.18310546875,-0.244140625
1777100182.10734,0.0703125,0.0986328125,1.00146484375,-0.3662109375,0.0,-0.18310546875
1777100182.2729168,0.0693359375,0.09521484375,1.004638671875,-0.67138671875,-0.1220703125,-0.18310546875
1777100182.2729168,0.0692138671875,0.09326171875,1.0062255859375,0.244140625,-0.18310546875,-0.18310546875
1777100182.2729168,0.070556640625,0.093017578125,1.001953125,0.91552734375,-0.18310546875,-0.18310546875
1777100182.2729168,0.07080078125,0.093505859375,0.9998779296875,0.30517578125,-0.18310546875,-0.1220703125
1777100182.2729168,0.0712890625,0.0931396484375,1.0030517578125,-0.54931640625,-0.06103515625,-0.18310546875
1777100182.2729168,0.072509765625,0.09228515625,1.0054931640625,-0.18310546875,-0.06103515625,-0.18310546875
1777100182.2729168,0.0726318359375,0.0933837890625,1.0029296875,0.9765625,-0.244140625,-0.18310546875
1777100182.2729168,0.0712890625,0.095458984375,1.0006103515625,0.79345703125,-0.42724609375,-0.1220703125
1777100182.2729168,0.07080078125,0.0977783203125,0.9996337890625,0.6103515625,-0.6103515625,-0.1220703125
1777100182.2729168,0.0712890625,0.100830078125,0.996826171875,1.64794921875,-0.8544921875,-0.244140625
1777100182.2729168,0.0706787109375,0.1014404296875,0.994140625,1.15966796875,-0.9765625,-0.244140625
1777100182.2729168,0.0709228515625,0.100341796875,0.9991455078125,-0.30517578125,-0.9765625,-0.244140625
1777100182.2729168,0.072265625,0.09619140625,1.01318359375,-1.5869140625,-0.6103515625,-0.244140625
1777100182.2729168,0.0703125,0.08837890625,1.0185546875,-0.42724609375,-0.244140625,-0.244140625
1777100182.2729168,0.0672607421875,0.0870361328125,1.01171875,1.77001953125,-0.30517578125,-0.244140625
1777100182.2729168,0.0682373046875,0.09033203125,1.002685546875,0.9765625,-0.30517578125,-0.18310546875
1777100182.2729168,0.071044921875,0.0919189453125,1.002197265625,0.0,-0.3662109375,-0.18310546875
1777100182.2729168,0.073486328125,0.09326171875,1.01220703125,-0.6103515625,-0.1220703125,-0.244140625
1777100182.2729168,0.0731201171875,0.0936279296875,1.019287109375,-0.244140625,0.3662109375,-0.244140625
1777100182.2729168,0.0706787109375,0.09423828125,1.02099609375,0.1220703125,0.79345703125,-0.244140625
1777100182.4457626,0.0697021484375,0.0958251953125,1.023681640625,-0.3662109375,1.0986328125,-0.18310546875
1777100182.4457626,0.0699462890625,0.096923828125,1.0294189453125,-1.0986328125,1.46484375,-0.244140625
1777100182.4457626,0.0712890625,0.095458984375,1.0333251953125,-1.64794921875,1.8310546875,-0.244140625
1777100182.4457626,0.0728759765625,0.0916748046875,1.0316162109375,-1.5869140625,2.3193359375,-0.244140625
1777100182.4457626,0.0723876953125,0.0872802734375,1.021240234375,-0.18310546875,2.62451171875,-0.18310546875
1777100182.4457626,0.06982421875,0.08642578125,1.003173828125,1.708984375,2.685546875,-0.18310546875
1777100182.4457626,0.0679931640625,0.0904541015625,0.9833984375,2.62451171875,2.3193359375,-0.18310546875
1777100182.4457626,0.067626953125,0.0948486328125,0.966796875,2.62451171875,1.77001953125,-0.244140625
1777100182.4457626,0.0655517578125,0.096435546875,0.95751953125,1.77001953125,1.03759765625,-0.244140625
1777100182.4457626,0.0640869140625,0.0963134765625,0.9564208984375,0.67138671875,0.3662109375,-0.244140625
1777100182.4457626,0.0643310546875,0.0960693359375,0.961181640625,0.244140625,-0.244140625,-0.30517578125
1777100182.4457626,0.06396484375,0.095458984375,0.9736328125,-0.48828125,-0.79345703125,-0.30517578125
1777100182.4457626,0.0645751953125,0.095703125,0.9923095703125,-1.03759765625,-1.220703125,-0.244140625
1777100182.4457626,0.0654296875,0.0948486328125,1.0106201171875,-0.9765625,-1.28173828125,-0.244140625
1777100182.4457626,0.066162109375,0.0919189453125,1.0252685546875,-0.91552734375,-1.15966796875,-0.244140625
1777100182.4457626,0.0665283203125,0.0894775390625,1.0345458984375,-0.8544921875,-0.79345703125,-0.18310546875
1777100182.4457626,0.066162109375,0.087890625,1.0338134765625,0.06103515625,-0.54931640625,-0.18310546875
1777100182.4457626,0.0665283203125,0.0887451171875,1.022216796875,1.953125,-0.6103515625,-0.18310546875
1777100182.4457626,0.0662841796875,0.0924072265625,1.005859375,2.74658203125,-0.79345703125,-0.18310546875
1777100182.4457626,0.06640625,0.09619140625,0.9940185546875,1.708984375,-0.9765625,-0.18310546875
1777100182.6271615,0.067626953125,0.0966796875,0.9931640625,-0.06103515625,-0.9765625,-0.244140625
1777100182.6271615,0.068603515625,0.093994140625,0.99853515625,-0.42724609375,-0.8544921875,-0.244140625
1777100182.6271615,0.067626953125,0.0933837890625,1.0015869140625,0.18310546875,-0.732421875,-0.18310546875
1777100182.6271615,0.0670166015625,0.0947265625,1.004150390625,0.1220703125,-0.67138671875,-0.1220703125
1777100182.6271615,0.06787109375,0.093505859375,1.0076904296875,-0.06103515625,-0.54931640625,-0.244140625
1777100182.6271615,0.068603515625,0.0904541015625,1.0086669921875,0.244140625,-0.42724609375,-0.244140625
1777100182.6271615,0.0697021484375,0.090087890625,1.0068359375,0.732421875,-0.30517578125,-0.244140625
1777100182.6271615,0.0693359375,0.0919189453125,1.0030517578125,1.15966796875,-0.30517578125,-0.244140625
1777100182.6271615,0.068115234375,0.0924072265625,1.002685546875,0.91552734375,-0.30517578125,-0.244140625
1777100182.6271615,0.067626953125,0.0927734375,1.0059814453125,0.54931640625,-0.18310546875,-0.244140625
1777100182.7983773,0.06640625,0.092529296875,1.009765625,-0.1220703125,-0.1220703125,-0.244140625
1777100182.7983773,0.06494140625,0.090576171875,1.0137939453125,-0.244140625,0.0,-0.244140625
1777100182.7983773,0.064208984375,0.0904541015625,1.0167236328125,0.244140625,0.06103515625,-0.244140625
1777100182.7983773,0.064453125,0.0919189453125,1.017578125,0.1220703125,0.1220703125,-0.18310546875
1777100182.7983773,0.0653076171875,0.0911865234375,1.0194091796875,-0.6103515625,0.3662109375,-0.18310546875
1777100182.7983773,0.067138671875,0.0897216796875,1.0235595703125,-1.28173828125,0.79345703125,-0.18310546875
1777100182.7983773,0.0689697265625,0.086669921875,1.0277099609375,-1.953125,1.28173828125,-0.1220703125
1777100182.7983773,0.0682373046875,0.0836181640625,1.0242919921875,-1.0986328125,1.77001953125,0.0
1777100182.7983773,0.06591796875,0.0888671875,1.00390625,3.662109375,1.64794921875,-0.1220703125
1777100182.7983773,0.0640869140625,0.0965576171875,0.976318359375,6.16455078125,0.9765625,-0.244140625
1777100182.7983773,0.0640869140625,0.1016845703125,0.961181640625,3.90625,0.30517578125,-0.18310546875
1777100182.7983773,0.064697265625,0.10546875,0.9676513671875,-0.48828125,0.0,-0.244140625
1777100182.7983773,0.0648193359375,0.10009765625,0.98974609375,-3.41796875,0.1220703125,-0.30517578125
1777100182.7983773,0.064697265625,0.091552734375,1.0098876953125,-3.11279296875,0.42724609375,-0.30517578125
1777100182.7983773,0.0635986328125,0.08935546875,1.01806640625,-1.3427734375,0.54931640625,-0.244140625
1777100182.7983773,0.062744140625,0.0885009765625,1.0206298828125,0.0,0.54931640625,-0.30517578125
1777100182.7983773,0.0638427734375,0.0877685546875,1.021240234375,1.46484375,0.48828125,-0.244140625
1777100182.7983773,0.065185546875,0.0897216796875,1.0159912109375,1.77001953125,0.48828125,-0.244140625
1777100182.7983773,0.064453125,0.0914306640625,1.0081787109375,0.91552734375,0.54931640625,-0.244140625
1777100182.7983773,0.0628662109375,0.0902099609375,1.0018310546875,0.244140625,0.48828125,-0.244140625
1777100182.9625173,0.0572509765625,0.0797119140625,0.9818115234375,0.91552734375,0.06103515625,-0.1220703125
1777100182.9625173,0.056640625,0.087158203125,0.9691162109375,4.150390625,-1.03759765625,-0.06103515625
1777100182.9625173,0.0628662109375,0.1036376953125,0.986572265625,0.1220703125,-1.220703125,-0.1220703125
1777100182.9625173,0.06396484375,0.10009765625,1.008544921875,-2.50244140625,-0.79345703125,-0.244140625
1777100182.9625173,0.064453125,0.0914306640625,1.0279541015625,-3.35693359375,-0.06103515625,-0.30517578125
1777100182.9625173,0.06396484375,0.0875244140625,1.02978515625,-0.9765625,0.244140625,-0.244140625
1777100182.9625173,0.06201171875,0.0899658203125,1.0166015625,2.01416015625,0.0,-0.244140625
1777100182.9625173,0.0625,0.093505859375,1.0064697265625,3.173828125,-0.3662109375,-0.244140625
1777100182.9625173,0.064697265625,0.0968017578125,0.9986572265625,2.3193359375,-0.48828125,-0.244140625
1777100182.9625173,0.0654296875,0.0970458984375,0.9957275390625,0.3662109375,-0.3662109375,-0.30517578125
1777100182.9625173,0.06396484375,0.093505859375,0.9974365234375,-1.0986328125,-0.18310546875,-0.244140625
1777100182.9625173,0.0621337890625,0.09033203125,0.9998779296875,-0.30517578125,-0.1220703125,-0.244140625
1777100182.9625173,0.061279296875,0.090576171875,0.9998779296875,0.8544921875,-0.244140625,-0.244140625
1777100182.9625173,0.0615234375,0.09130859375,0.998779296875,1.220703125,-0.42724609375,-0.244140625
1777100182.9625173,0.06201171875,0.0921630859375,0.9986572265625,1.3427734375,-0.6103515625,-0.244140625
1777100182.9625173,0.0625,0.0936279296875,1.000732421875,0.244140625,-0.732421875,-0.244140625
1777100182.9625173,0.062255859375,0.090576171875,1.0047607421875,-0.48828125,-0.79345703125,-0.244140625
1777100182.9625173,0.0621337890625,0.0869140625,1.0079345703125,0.06103515625,-0.79345703125,-0.244140625
1777100182.9625173,0.0626220703125,0.0872802734375,1.0076904296875,1.15966796875,-0.79345703125,-0.18310546875
1777100182.9625173,0.062744140625,0.090576171875,1.0057373046875,1.52587890625,-0.79345703125,-0.18310546875
1777100183.1362016,0.0623779296875,0.0927734375,1.0057373046875,0.732421875,-0.79345703125,-0.244140625
1777100183.1362016,0.062255859375,0.0919189453125,1.00732421875,-0.1220703125,-0.732421875,-0.244140625
1777100183.1362016,0.0626220703125,0.0902099609375,1.0081787109375,-0.42724609375,-0.732421875,-0.244140625
1777100183.1362016,0.062255859375,0.0875244140625,1.0079345703125,0.6103515625,-0.79345703125,-0.18310546875
1777100183.1362016,0.0623779296875,0.0892333984375,1.002685546875,2.197265625,-1.03759765625,-0.18310546875
1777100183.1362016,0.0638427734375,0.09521484375,0.99658203125,1.77001953125,-1.15966796875,-0.18310546875
1777100183.1362016,0.0648193359375,0.097412109375,1.000732421875,-0.244140625,-1.03759765625,-0.244140625
1777100183.1362016,0.0645751953125,0.0941162109375,1.0106201171875,-1.0986328125,-0.79345703125,-0.244140625
1777100183.1362016,0.0635986328125,0.090576171875,1.0162353515625,-0.48828125,-0.42724609375,-0.244140625
1777100183.1362016,0.06298828125,0.0888671875,1.0157470703125,0.3662109375,-0.244140625,-0.244140625
1777100183.1362016,0.063232421875,0.089599609375,1.0120849609375,1.0986328125,-0.1220703125,-0.244140625
1777100183.1362016,0.0634765625,0.0919189453125,1.0076904296875,1.40380859375,-0.18310546875,-0.244140625
1777100183.1362016,0.0633544921875,0.092529296875,1.0037841796875,1.220703125,-0.1220703125,-0.244140625
1777100183.1362016,0.063720703125,0.0927734375,1.0010986328125,0.79345703125,-0.18310546875,-0.244140625
1777100183.1362016,0.0638427734375,0.09228515625,0.999267578125,0.42724609375,-0.30517578125,-0.244140625
1777100183.1362016,0.06298828125,0.0908203125,0.9981689453125,0.8544921875,-0.48828125,-0.30517578125
1777100183.1362016,0.061767578125,0.091064453125,0.99609375,1.220703125,-0.79345703125,-0.244140625
1777100183.1362016,0.06201171875,0.09228515625,0.995361328125,0.732421875,-1.03759765625,-0.244140625
1777100183.1362016,0.0631103515625,0.093505859375,1.001708984375,-0.06103515625,-1.03759765625,-0.244140625
1777100183.1362016,0.0634765625,0.0926513671875,1.0123291015625,-1.0986328125,-0.79345703125,-0.244140625
1777100183.321116,0.0621337890625,0.0889892578125,1.01806640625,-0.54931640625,-0.48828125,-0.244140625
1777100183.321116,0.06201171875,0.0870361328125,1.013916015625,1.0986328125,-0.42724609375,-0.18310546875
1777100183.321116,0.0618896484375,0.0894775390625,1.001953125,2.62451171875,-0.6103515625,-0.18310546875
1777100183.321116,0.06298828125,0.09326171875,0.99072265625,2.01416015625,-0.91552734375,-0.18310546875
1777100183.321116,0.065185546875,0.093994140625,0.9874267578125,0.91552734375,-1.15966796875,-0.18310546875
1777100183.321116,0.0648193359375,0.0926513671875,0.9847412109375,1.28173828125,-1.46484375,-0.244140625
1777100183.321116,0.0633544921875,0.091552734375,0.9732666015625,2.8076171875,-2.0751953125,-0.244140625
1777100183.321116,0.06201171875,0.0941162109375,0.9598388671875,4.150390625,-3.0517578125,-0.244140625
1777100183.321116,0.0628662109375,0.097900390625,0.95458984375,3.23486328125,-4.08935546875,-0.244140625
1777100183.321116,0.064697265625,0.0982666015625,0.9608154296875,1.15966796875,-4.94384765625,-0.244140625
1777100183.5218139,0.0660400390625,0.0921630859375,0.9761962890625,-0.8544921875,-5.43212890625,-0.244140625
1777100183.5218139,0.0667724609375,0.0888671875,0.9920654296875,0.42724609375,-5.92041015625,-0.3662109375
1777100183.5218139,0.069091796875,0.09130859375,1.000244140625,3.0517578125,-6.2255859375,-0.244140625
1777100183.5218139,0.07275390625,0.0938720703125,1.006103515625,3.662109375,-6.28662109375,-0.244140625
1777100183.5218139,0.0770263671875,0.0972900390625,1.0172119140625,2.25830078125,-5.9814453125,-0.18310546875
1777100183.5218139,0.0816650390625,0.09814453125,1.0386962890625,-0.6103515625,-5.18798828125,-0.244140625
1777100183.5218139,0.0833740234375,0.0955810546875,1.0653076171875,-1.953125,-3.84521484375,-0.244140625
1777100183.5218139,0.0814208984375,0.089599609375,1.07763671875,-0.54931640625,-2.44140625,-0.30517578125
1777100183.5218139,0.0770263671875,0.0858154296875,1.0679931640625,1.220703125,-1.3427734375,-0.244140625
1777100183.5218139,0.07421875,0.0831298828125,1.050537109375,0.18310546875,-0.54931640625,-0.06103515625
1777100183.5218139,0.072998046875,0.076904296875,1.038330078125,-0.8544921875,0.0,0.30517578125
1777100183.5218139,0.0714111328125,0.0771484375,1.0242919921875,1.46484375,0.3662109375,0.54931640625
1777100183.5218139,0.0694580078125,0.0908203125,1.0035400390625,3.35693359375,0.48828125,0.6103515625
1777100183.5218139,0.06640625,0.106201171875,0.982421875,2.8076171875,0.42724609375,0.48828125
1777100183.5218139,0.0650634765625,0.113525390625,0.97265625,1.220703125,0.18310546875,0.30517578125
1777100183.5218139,0.067626953125,0.1124267578125,0.9732666015625,0.06103515625,0.0,0.18310546875
1777100183.5218139,0.06982421875,0.1072998046875,0.98486328125,0.3662109375,-0.06103515625,-0.244140625
1777100183.5218139,0.0704345703125,0.1011962890625,1.0069580078125,-3.47900390625,0.30517578125,-0.244140625
1777100183.5218139,0.070068359375,0.1029052734375,0.9967041015625,4.7607421875,-0.18310546875,-0.54931640625
1777100183.5218139,0.0675048828125,0.0948486328125,0.994140625,0.54931640625,-0.42724609375,-0.30517578125
1777100183.5218139,0.06982421875,0.0860595703125,1.019775390625,-4.638671875,-0.30517578125,0.0
1777100183.5218139,0.0728759765625,0.097900390625,1.00244140625,5.37109375,-1.28173828125,-0.79345703125
1777100183.5218139,0.0709228515625,0.087646484375,0.9849853515625,2.44140625,-1.46484375,-0.3662109375
1777100183.5218139,0.076171875,0.0731201171875,1.0042724609375,-5.4931640625,-1.15966796875,0.18310546875
1777100183.5218139,0.07421875,0.0928955078125,1.01806640625,0.244140625,-1.220703125,-0.3662109375
1777100183.5218139,0.068359375,0.100341796875,1.0013427734375,7.75146484375,-1.5869140625,-0.54931640625
1777100183.5218139,0.0711669921875,0.088623046875,0.9937744140625,-0.9765625,-1.3427734375,0.244140625
1777100183.5218139,0.0738525390625,0.1024169921875,1.01611328125,-3.84521484375,-1.0986328125,0.06103515625
1777100183.5218139,0.070556640625,0.1005859375,1.0294189453125,-2.3193359375,-0.732421875,-0.30517578125
1777100183.5218139,0.0650634765625,0.08642578125,1.0115966796875,5.615234375,-0.9765625,-0.18310546875
1777100183.7796466,0.069580078125,0.1077880859375,0.9801025390625,6.28662109375,-1.52587890625,0.0
1777100183.7796466,0.0770263671875,0.1182861328125,0.9764404296875,-2.5634765625,-1.5869140625,-0.18310546875
1777100183.7796466,0.079345703125,0.093017578125,1.0057373046875,-5.615234375,-1.220703125,-0.30517578125
1777100183.7796466,0.07763671875,0.0823974609375,1.0228271484375,0.54931640625,-0.67138671875,-0.244140625
1777100183.7796466,0.07470703125,0.09375,1.01220703125,2.9296875,-0.244140625,-0.18310546875
1777100183.7796466,0.07275390625,0.094970703125,1.006591796875,1.46484375,-0.18310546875,-0.244140625
1777100183.7796466,0.072998046875,0.094482421875,1.009033203125,1.03759765625,-0.244140625,-0.30517578125
1777100183.7796466,0.071533203125,0.098876953125,1.01123046875,-0.244140625,-0.244140625,-0.30517578125
1777100183.7796466,0.0714111328125,0.0963134765625,1.0213623046875,-1.953125,0.06103515625,-0.30517578125
1777100183.7796466,0.0726318359375,0.0911865234375,1.03076171875,-0.3662109375,0.54931640625,-0.30517578125
1777100183.7796466,0.0706787109375,0.093994140625,1.02099609375,2.44140625,0.79345703125,-0.30517578125
1777100183.7796466,0.0684814453125,0.0989990234375,1.0010986328125,2.01416015625,0.67138671875,-0.30517578125
1777100183.7796466,0.06982421875,0.100341796875,0.9935302734375,-0.91552734375,0.42724609375,-0.30517578125
1777100183.7796466,0.072509765625,0.095703125,1.0029296875,-2.99072265625,0.42724609375,-0.30517578125
1777100183.7796466,0.073486328125,0.0887451171875,1.0166015625,-2.5634765625,0.732421875,-0.30517578125
1777100183.7796466,0.0733642578125,0.0885009765625,1.023681640625,-0.79345703125,1.28173828125,-0.30517578125
1777100183.7796466,0.072998046875,0.0899658203125,1.02001953125,-0.3662109375,1.708984375,-0.30517578125
1777100183.7796466,0.0732421875,0.09228515625,1.0189208984375,-0.48828125,1.8310546875,-0.30517578125
1777100183.7796466,0.0726318359375,0.0938720703125,1.0133056640625,-0.30517578125,2.01416015625,-0.3662109375
1777100183.7796466,0.0711669921875,0.095947265625,0.99658203125,1.89208984375,1.708984375,-0.42724609375
1777100183.998866,0.072509765625,0.09716796875,0.9866943359375,0.9765625,1.46484375,-0.42724609375
1777100183.998866,0.0733642578125,0.09423828125,0.984375,-0.244140625,1.40380859375,-0.42724609375
1777100183.99988,0.072265625,0.0943603515625,0.9886474609375,-1.03759765625,1.52587890625,-0.3662109375
1777100183.99988,0.070068359375,0.0921630859375,0.995361328125,-0.91552734375,1.77001953125,-0.42724609375
1777100183.99988,0.0655517578125,0.0899658203125,0.9925537109375,1.03759765625,1.64794921875,-0.48828125
1777100183.99988,0.0634765625,0.0916748046875,0.984375,1.28173828125,1.15966796875,-0.48828125
1777100183.99988,0.06640625,0.0889892578125,0.9893798828125,-1.28173828125,0.732421875,-0.3662109375
1777100183.99988,0.06982421875,0.0799560546875,1.0081787109375,-3.96728515625,0.79345703125,-0.244140625
1777100183.99988,0.0693359375,0.0762939453125,1.0196533203125,-1.89208984375,0.8544921875,-0.1220703125
1777100183.99988,0.067626953125,0.0845947265625,1.0093994140625,3.84521484375,0.6103515625,-0.18310546875
1777100183.99988,0.0670166015625,0.0982666015625,0.9847412109375,5.2490234375,0.06103515625,-0.244140625
1777100183.99988,0.0640869140625,0.10205078125,0.9722900390625,1.3427734375,-0.48828125,-0.244140625
1777100183.99988,0.062744140625,0.0972900390625,0.981201171875,-1.52587890625,-0.91552734375,-0.244140625
1777100183.99988,0.0650634765625,0.0943603515625,0.99658203125,-2.01416015625,-1.03759765625,-0.244140625
1777100183.99988,0.0657958984375,0.09130859375,1.009765625,-1.220703125,-0.91552734375,-0.18310546875
1777100183.99988,0.0638427734375,0.089599609375,1.0113525390625,0.91552734375,-0.8544921875,-0.18310546875
1777100183.99988,0.064208984375,0.0924072265625,1.002197265625,1.8310546875,-1.0986328125,-0.18310546875
1777100183.99988,0.0673828125,0.0953369140625,0.9984130859375,0.8544921875,-1.3427734375,-0.244140625
1777100183.99988,0.071044921875,0.0946044921875,1.006103515625,-0.732421875,-1.28173828125,-0.244140625
1777100183.99988,0.072998046875,0.0916748046875,1.0205078125,-1.953125,-0.732421875,-0.244140625
1777100183.99988,0.0718994140625,0.0877685546875,1.033447265625,-1.5869140625,0.06103515625,-0.244140625
1777100183.99988,0.0692138671875,0.0845947265625,1.033203125,0.54931640625,0.79345703125,-0.244140625
1777100183.99988,0.0662841796875,0.0880126953125,1.0208740234375,1.89208984375,1.0986328125,-0.18310546875
1777100183.99988,0.065185546875,0.09228515625,1.0107421875,0.42724609375,1.220703125,-0.18310546875
1777100183.99988,0.065185546875,0.089111328125,1.011962890625,-1.40380859375,1.40380859375,-0.1220703125
1777100183.99988,0.0662841796875,0.0850830078125,1.0146484375,-0.91552734375,1.64794921875,-0.06103515625
1777100183.99988,0.0665283203125,0.0853271484375,1.0076904296875,1.28173828125,1.77001953125,-0.1220703125
1777100183.99988,0.065185546875,0.08935546875,0.9896240234375,3.2958984375,1.46484375,-0.18310546875
1777100183.99988,0.0640869140625,0.095703125,0.968017578125,4.57763671875,0.6103515625,-0.18310546875
1777100183.99988,0.0621337890625,0.098388671875,0.9622802734375,2.0751953125,-0.1220703125,-0.244140625
1777100184.2005558,0.0660400390625,0.0986328125,0.9871826171875,-3.47900390625,-0.1220703125,-0.1220703125
1777100184.2005558,0.0697021484375,0.0975341796875,1.015625,-3.90625,0.244140625,-0.30517578125
1777100184.2005558,0.064697265625,0.0892333984375,1.026611328125,-1.28173828125,0.6103515625,-0.3662109375
1777100184.2005558,0.06103515625,0.086181640625,1.021240234375,1.46484375,0.67138671875,-0.30517578125
1777100184.2005558,0.0626220703125,0.092529296875,1.010009765625,1.52587890625,0.42724609375,-0.244140625
1777100184.2005558,0.066162109375,0.09521484375,1.0126953125,-0.42724609375,0.3662109375,-0.30517578125
1777100184.2005558,0.06787109375,0.09033203125,1.02392578125,-1.64794921875,0.8544921875,-0.30517578125
1777100184.2005558,0.06640625,0.0863037109375,1.0263671875,-0.54931640625,1.46484375,-0.244140625
1777100184.2005558,0.0604248046875,0.081787109375,1.01025390625,0.42724609375,1.708984375,-0.244140625
1777100184.2005558,0.055419921875,0.074462890625,0.9608154296875,5.79833984375,0.1220703125,-0.06103515625
1777100184.2005558,0.0576171875,0.0919189453125,0.9423828125,5.2490234375,-1.0986328125,-0.06103515625
1777100184.2005558,0.06591796875,0.106201171875,0.9705810546875,-0.8544921875,-1.52587890625,-0.1220703125
1777100184.2005558,0.0673828125,0.095947265625,0.9898681640625,-1.52587890625,-1.3427734375,-0.244140625
1777100184.2005558,0.0625,0.08935546875,1.001953125,-1.708984375,-0.91552734375,-0.30517578125
1777100184.2005558,0.061767578125,0.0926513671875,1.0064697265625,0.244140625,-1.03759765625,-0.30517578125
1777100184.2005558,0.0599365234375,0.096435546875,1.0130615234375,0.3662109375,-1.15966796875,-0.30517578125
1777100184.2005558,0.0596923828125,0.09375,1.021240234375,-0.732421875,-1.0986328125,-0.30517578125
1777100184.2005558,0.0638427734375,0.0888671875,1.0281982421875,-0.8544921875,-0.91552734375,-0.244140625
1777100184.2005558,0.0643310546875,0.083740234375,1.02880859375,0.3662109375,-0.54931640625,-0.244140625
1777100184.2005558,0.0634765625,0.0845947265625,1.0177001953125,1.89208984375,-0.48828125,-0.244140625
1777100184.3849797,0.0650634765625,0.08935546875,1.005126953125,1.953125,-0.54931640625,-0.244140625
1777100184.3849797,0.0660400390625,0.0909423828125,1.0006103515625,0.79345703125,-0.48828125,-0.18310546875
1777100184.3849797,0.06640625,0.09033203125,1.000732421875,0.6103515625,-0.48828125,-0.18310546875
1777100184.3849797,0.0653076171875,0.0916748046875,1.0023193359375,0.3662109375,-0.3662109375,-0.244140625
1777100184.3849797,0.0635986328125,0.0924072265625,1.004638671875,-0.1220703125,-0.244140625,-0.244140625
1777100184.3849797,0.0618896484375,0.09130859375,1.0052490234375,0.18310546875,-0.18310546875,-0.244140625
1777100184.3849797,0.0618896484375,0.0904541015625,1.0045166015625,0.732421875,-0.18310546875,-0.18310546875
1777100184.3849797,0.0638427734375,0.09130859375,1.0054931640625,0.67138671875,-0.1220703125,-0.244140625
1777100184.3849797,0.064453125,0.0911865234375,1.00830078125,-0.06103515625,0.18310546875,-0.244140625
1777100184.3849797,0.0635986328125,0.089111328125,1.0086669921875,-0.244140625,0.3662109375,-0.244140625
1777100184.3849797,0.0616455078125,0.08740234375,1.0040283203125,0.54931640625,0.3662109375,-0.244140625
1777100184.3849797,0.060546875,0.087158203125,0.9959716796875,1.52587890625,0.1220703125,-0.244140625
1777100184.3849797,0.0604248046875,0.08984375,0.989013671875,1.89208984375,-0.3662109375,-0.244140625
1777100184.3849797,0.06103515625,0.0927734375,0.9864501953125,1.52587890625,-0.8544921875,-0.244140625
1777100184.3849797,0.06201171875,0.09326171875,0.9918212890625,0.0,-1.03759765625,-0.244140625
1777100184.3849797,0.062255859375,0.091552734375,1.002685546875,-1.220703125,-0.9765625,-0.244140625
1777100184.3849797,0.062255859375,0.0897216796875,1.013916015625,-0.9765625,-0.79345703125,-0.244140625
1777100184.3849797,0.0625,0.0885009765625,1.018310546875,0.244140625,-0.6103515625,-0.18310546875
1777100184.3849797,0.062744140625,0.0885009765625,1.0130615234375,1.15966796875,-0.48828125,-0.18310546875
1777100184.3849797,0.062255859375,0.088623046875,1.0050048828125,1.3427734375,-0.6103515625,-0.18310546875
1777100184.570773,0.0635986328125,0.0885009765625,0.99755859375,1.15966796875,-0.732421875,-0.18310546875
1777100184.570773,0.0645751953125,0.0889892578125,0.9932861328125,1.0986328125,-0.91552734375,-0.18310546875
1777100184.570773,0.0635986328125,0.0894775390625,0.9906005859375,1.15966796875,-1.0986328125,-0.18310546875
1777100184.570773,0.063232421875,0.0914306640625,0.990966796875,0.79345703125,-1.220703125,-0.244140625
1777100184.570773,0.0633544921875,0.093994140625,1.0013427734375,-0.06103515625,-1.0986328125,-0.244140625
1777100184.570773,0.0635986328125,0.09423828125,1.0174560546875,-1.15966796875,-0.732421875,-0.244140625
1777100184.570773,0.0631103515625,0.0916748046875,1.0272216796875,-0.8544921875,-0.3662109375,-0.244140625
1777100184.570773,0.0623779296875,0.088134765625,1.0260009765625,0.244140625,-0.06103515625,-0.18310546875
1777100184.570773,0.062255859375,0.0882568359375,1.01611328125,1.8310546875,-0.1220703125,-0.18310546875
1777100184.570773,0.0626220703125,0.09130859375,1.0035400390625,2.0751953125,-0.244140625,-0.18310546875
1777100184.7480853,0.0635986328125,0.0921630859375,0.9952392578125,1.220703125,-0.3662109375,-0.18310546875
1777100184.7480853,0.0635986328125,0.0897216796875,0.9906005859375,0.732421875,-0.42724609375,-0.244140625
1777100184.7480853,0.0628662109375,0.089111328125,0.9873046875,0.732421875,-0.67138671875,-0.244140625
1777100184.7480853,0.0631103515625,0.091552734375,0.9874267578125,0.54931640625,-0.8544921875,-0.244140625
1777100184.7480853,0.062255859375,0.090576171875,0.9937744140625,0.1220703125,-1.0986328125,-0.244140625
1777100184.7480853,0.06201171875,0.0894775390625,1.001708984375,0.30517578125,-1.15966796875,-0.244140625
1777100184.7480853,0.0633544921875,0.0911865234375,1.0047607421875,0.9765625,-1.220703125,-0.244140625
1777100184.7480853,0.0628662109375,0.0911865234375,1.001953125,1.220703125,-1.40380859375,-0.244140625
1777100184.7480853,0.0618896484375,0.0892333984375,0.997314453125,1.15966796875,-1.64794921875,-0.244140625
1777100184.7480853,0.0623779296875,0.089111328125,0.992919921875,1.3427734375,-1.953125,-0.18310546875
1777100184.9206698,0.064208984375,0.09033203125,0.9884033203125,1.3427734375,-2.25830078125,-0.18310546875
1777100184.9206698,0.0648193359375,0.090087890625,0.984619140625,1.89208984375,-2.685546875,-0.18310546875
1777100184.9206698,0.0648193359375,0.091064453125,0.9835205078125,1.89208984375,-3.0517578125,-0.18310546875
1777100184.9206698,0.06591796875,0.093505859375,0.9888916015625,0.67138671875,-3.173828125,-0.18310546875
1777100184.9206698,0.0675048828125,0.0941162109375,1.001220703125,0.06103515625,-3.0517578125,-0.244140625
1777100184.9206698,0.067138671875,0.092529296875,1.0157470703125,0.06103515625,-2.8076171875,-0.30517578125
1777100184.9206698,0.0662841796875,0.0911865234375,1.0277099609375,-0.06103515625,-2.44140625,-0.30517578125
1777100184.9206698,0.0687255859375,0.0888671875,1.0296630859375,0.48828125,-2.25830078125,-0.3662109375
1777100184.9206698,0.06982421875,0.092529296875,1.017822265625,3.60107421875,-2.25830078125,-0.48828125
1777100184.9206698,0.0672607421875,0.0965576171875,1.002685546875,3.35693359375,-2.44140625,-0.244140625
1777100184.9206698,0.06689453125,0.09326171875,0.9957275390625,1.220703125,-2.5634765625,-0.18310546875
1777100184.9206698,0.0692138671875,0.09130859375,0.9986572265625,-0.30517578125,-2.50244140625,-0.18310546875
1777100184.9206698,0.06982421875,0.0882568359375,1.0029296875,0.06103515625,-2.38037109375,-0.1220703125
1777100184.9206698,0.0682373046875,0.0863037109375,1.00341796875,1.46484375,-2.25830078125,-0.1220703125
1777100184.9206698,0.06787109375,0.0904541015625,1.0035400390625,1.89208984375,-2.197265625,-0.18310546875
1777100184.9206698,0.0693359375,0.0946044921875,1.0076904296875,0.48828125,-2.01416015625,-0.18310546875
1777100184.9206698,0.0704345703125,0.093017578125,1.0206298828125,-0.91552734375,-1.5869140625,-0.18310546875
1777100184.9206698,0.072021484375,0.0927734375,1.03662109375,-1.28173828125,-0.8544921875,-0.244140625
1777100184.9206698,0.072021484375,0.0916748046875,1.0462646484375,-0.9765625,0.06103515625,-0.18310546875
1777100184.9206698,0.0703125,0.0889892578125,1.0386962890625,0.54931640625,0.67138671875,-0.18310546875
1777100184.9206698,0.0703125,0.08935546875,1.016357421875,1.953125,0.67138671875,-0.1220703125
1777100184.9206698,0.071044921875,0.0933837890625,0.9940185546875,2.62451171875,0.244140625,-0.1220703125
1777100184.9206698,0.0714111328125,0.09716796875,0.9814453125,1.3427734375,-0.18310546875,-0.18310546875
1777100184.9206698,0.0718994140625,0.094970703125,0.9822998046875,-0.42724609375,-0.30517578125,-0.18310546875
1777100184.9206698,0.07177734375,0.0914306640625,0.989013671875,-0.8544921875,-0.18310546875,-0.244140625
1777100184.9206698,0.0699462890625,0.090087890625,0.9959716796875,-0.06103515625,-0.1220703125,-0.244140625
1777100184.9206698,0.0679931640625,0.091064453125,1.0025634765625,0.67138671875,-0.244140625,-0.244140625
1777100184.9206698,0.0692138671875,0.09375,1.0078125,0.3662109375,-0.244140625,-0.244140625
1777100184.9221463,0.0701904296875,0.0931396484375,1.011962890625,-0.244140625,-0.244140625,-0.244140625
1777100184.9221463,0.0693359375,0.08984375,1.013916015625,-0.06103515625,-0.18310546875,-0.244140625
1777100185.085601,0.070068359375,0.0897216796875,1.0103759765625,0.8544921875,-0.1220703125,-0.18310546875
1777100185.085601,0.071533203125,0.091552734375,1.00341796875,1.15966796875,-0.06103515625,-0.18310546875
1777100185.085601,0.07080078125,0.09228515625,0.998291015625,0.79345703125,-0.06103515625,-0.18310546875
1777100185.085601,0.068603515625,0.0921630859375,0.996826171875,0.3662109375,-0.06103515625,-0.18310546875
1777100185.085601,0.0670166015625,0.091796875,1.001220703125,-0.6103515625,-0.06103515625,-0.18310546875
1777100185.085601,0.0667724609375,0.090576171875,1.0111083984375,-0.79345703125,0.0,-0.244140625
1777100185.085601,0.067626953125,0.0906982421875,1.0189208984375,-0.06103515625,0.1220703125,-0.18310546875
1777100185.085601,0.06884765625,0.0921630859375,1.019775390625,0.48828125,0.30517578125,-0.244140625
1777100185.085601,0.0694580078125,0.0936279296875,1.0150146484375,0.8544921875,0.42724609375,-0.244140625
1777100185.085601,0.069091796875,0.0950927734375,1.0069580078125,1.0986328125,0.42724609375,-0.244140625
1777100185.085601,0.0692138671875,0.0960693359375,1.0037841796875,0.30517578125,0.6103515625,-0.18310546875
1777100185.085601,0.0684814453125,0.0933837890625,1.0074462890625,-1.03759765625,0.8544921875,-0.18310546875
1777100185.085601,0.067626953125,0.090087890625,1.008544921875,-0.42724609375,0.9765625,-0.244140625
1777100185.085601,0.0672607421875,0.0888671875,1.008056640625,-0.3662109375,1.0986328125,-0.244140625
1777100185.085601,0.0665283203125,0.0887451171875,1.0078125,-0.1220703125,1.15966796875,-0.244140625
1777100185.085601,0.0662841796875,0.0899658203125,1.008544921875,-0.42724609375,1.220703125,-0.244140625
1777100185.085601,0.0665283203125,0.09033203125,1.013427734375,-0.79345703125,1.40380859375,-0.18310546875
1777100185.085601,0.0672607421875,0.08935546875,1.0172119140625,-1.03759765625,1.77001953125,-0.244140625
1777100185.085601,0.0670166015625,0.087646484375,1.0150146484375,-0.3662109375,1.953125,-0.244140625
1777100185.085601,0.0657958984375,0.088134765625,1.0079345703125,0.3662109375,1.953125,-0.18310546875
1777100185.249589,0.0650634765625,0.0889892578125,0.9990234375,0.732421875,1.8310546875,-0.18310546875
1777100185.249589,0.065185546875,0.090087890625,0.9945068359375,0.42724609375,1.8310546875,-0.18310546875
1777100185.249589,0.064453125,0.091064453125,0.9913330078125,0.30517578125,1.708984375,-0.244140625
1777100185.249589,0.062744140625,0.092529296875,0.9857177734375,0.9765625,1.40380859375,-0.244140625
1777100185.249589,0.060302734375,0.0928955078125,0.9814453125,0.48828125,1.0986328125,-0.244140625
1777100185.249589,0.058837890625,0.0885009765625,0.9886474609375,-2.0751953125,0.9765625,-0.244140625
1777100185.249589,0.0609130859375,0.08251953125,0.9908447265625,-1.28173828125,0.42724609375,-0.1220703125
1777100185.249589,0.0626220703125,0.0849609375,0.9801025390625,3.35693359375,-0.48828125,-0.18310546875
1777100185.249589,0.0625,0.09619140625,0.9761962890625,3.96728515625,-1.220703125,-0.18310546875
1777100185.249589,0.0626220703125,0.1009521484375,0.98388671875,0.30517578125,-1.46484375,-0.18310546875
1777100185.460025,0.064453125,0.0953369140625,1.0013427734375,-3.173828125,-1.3427734375,-0.244140625
1777100185.460025,0.0633544921875,0.085693359375,1.0184326171875,-2.86865234375,-1.0986328125,-0.244140625
1777100185.460025,0.0599365234375,0.081787109375,1.024169921875,0.244140625,-0.9765625,-0.18310546875
1777100185.460025,0.0599365234375,0.0875244140625,1.0169677734375,2.197265625,-0.9765625,-0.18310546875
1777100185.460025,0.0623779296875,0.09228515625,1.0076904296875,1.15966796875,-0.9765625,-0.244140625
1777100185.460025,0.064697265625,0.089599609375,1.0074462890625,0.1220703125,-0.91552734375,-0.18310546875
1777100185.460025,0.06591796875,0.0858154296875,1.0089111328125,0.67138671875,-0.732421875,-0.18310546875
1777100185.461026,0.064697265625,0.0838623046875,1.0009765625,1.52587890625,-0.6103515625,-0.18310546875
1777100185.461026,0.0631103515625,0.0855712890625,0.9893798828125,1.953125,-0.91552734375,-0.1220703125
1777100185.461026,0.0645751953125,0.0921630859375,0.9937744140625,0.48828125,-1.0986328125,-0.18310546875
1777100185.461026,0.065185546875,0.0941162109375,1.00830078125,-1.3427734375,-0.8544921875,-0.18310546875
1777100185.461026,0.0635986328125,0.089599609375,1.0189208984375,-1.64794921875,-0.42724609375,-0.244140625
1777100185.461026,0.063720703125,0.087158203125,1.0230712890625,-0.3662109375,0.06103515625,-0.18310546875
1777100185.461026,0.064208984375,0.0872802734375,1.018310546875,1.40380859375,0.18310546875,-0.244140625
1777100185.461026,0.06396484375,0.0894775390625,1.01123046875,2.13623046875,0.18310546875,-0.18310546875
1777100185.461026,0.0643310546875,0.0936279296875,1.004150390625,1.8310546875,0.06103515625,-0.18310546875
1777100185.461026,0.0645751953125,0.094482421875,0.9986572265625,0.91552734375,0.0,-0.244140625
1777100185.461026,0.0631103515625,0.091796875,0.9974365234375,-0.1220703125,-0.06103515625,-0.244140625
1777100185.461026,0.0616455078125,0.08984375,0.9984130859375,-0.1220703125,-0.244140625,-0.244140625
1777100185.461026,0.061279296875,0.0894775390625,1.00048828125,0.06103515625,-0.42724609375,-0.244140625
1777100185.461026,0.06201171875,0.0885009765625,1.003662109375,-0.06103515625,-0.3662109375,-0.244140625
1777100185.461026,0.0625,0.0869140625,1.0054931640625,0.3662109375,-0.3662109375,-0.18310546875
1777100185.461026,0.062255859375,0.08740234375,1.0047607421875,0.6103515625,-0.3662109375,-0.244140625
1777100185.461026,0.0625,0.088623046875,1.002197265625,0.42724609375,-0.3662109375,-0.18310546875
1777100185.461026,0.061767578125,0.087158203125,1.000732421875,0.30517578125,-0.42724609375,-0.18310546875
1777100185.461026,0.0631103515625,0.086181640625,1.0008544921875,0.6103515625,-0.54931640625,-0.18310546875
1777100185.461026,0.064208984375,0.088623046875,1.0015869140625,0.6103515625,-0.6103515625,-0.18310546875
1777100185.461026,0.06298828125,0.09033203125,1.00244140625,0.42724609375,-0.54931640625,-0.244140625
1777100185.461026,0.0623779296875,0.0899658203125,1.0030517578125,0.3662109375,-0.48828125,-0.244140625
1777100185.461026,0.0623779296875,0.0894775390625,1.00341796875,0.67138671875,-0.54931640625,-0.244140625
1777100185.6752193,0.0625,0.0899658203125,1.0042724609375,0.732421875,-0.6103515625,-0.18310546875
1777100185.6752193,0.0623779296875,0.0899658203125,1.006103515625,0.6103515625,-0.6103515625,-0.18310546875
1777100185.6752193,0.0633544921875,0.090576171875,1.0062255859375,0.6103515625,-0.54931640625,-0.18310546875
1777100185.6752193,0.0635986328125,0.09130859375,1.0047607421875,0.54931640625,-0.54931640625,-0.244140625
1777100185.6752193,0.062744140625,0.090576171875,1.004638671875,0.48828125,-0.54931640625,-0.244140625
1777100185.6752193,0.0626220703125,0.0897216796875,1.0064697265625,0.30517578125,-0.54931640625,-0.244140625
1777100185.6752193,0.0621337890625,0.090087890625,1.0068359375,0.18310546875,-0.42724609375,-0.244140625
1777100185.6752193,0.06103515625,0.0889892578125,1.006591796875,-0.06103515625,-0.3662109375,-0.244140625
1777100185.6752193,0.0611572265625,0.087158203125,1.00634765625,0.42724609375,-0.30517578125,-0.244140625
1777100185.6752193,0.0626220703125,0.0887451171875,1.0042724609375,0.91552734375,-0.30517578125,-0.18310546875
1777100185.6752193,0.062744140625,0.0902099609375,1.0015869140625,0.732421875,-0.30517578125,-0.18310546875
1777100185.6752193,0.0623779296875,0.09033203125,1.00048828125,0.30517578125,-0.3662109375,-0.244140625
1777100185.6752193,0.0634765625,0.0894775390625,1.00048828125,0.67138671875,-0.48828125,-0.244140625
1777100185.6752193,0.0643310546875,0.08984375,0.9984130859375,1.46484375,-0.6103515625,-0.244140625
1777100185.6752193,0.06396484375,0.0909423828125,0.99462890625,1.40380859375,-0.8544921875,-0.244140625
1777100185.6752193,0.062744140625,0.0911865234375,0.9923095703125,0.67138671875,-1.0986328125,-0.244140625
1777100185.6752193,0.063232421875,0.0909423828125,0.9964599609375,0.244140625,-1.220703125,-0.18310546875
1777100185.6752193,0.06494140625,0.0908203125,1.005615234375,-0.06103515625,-1.0986328125,-0.244140625
1777100185.6752193,0.0638427734375,0.089599609375,1.0115966796875,-0.48828125,-0.8544921875,-0.244140625
1777100185.6752193,0.0614013671875,0.086181640625,1.013427734375,-0.06103515625,-0.6103515625,-0.244140625
1777100185.844884,0.0611572265625,0.083984375,1.010498046875,1.40380859375,-0.67138671875,-0.18310546875
1777100185.844884,0.0626220703125,0.087158203125,1.0015869140625,2.38037109375,-0.8544921875,-0.18310546875
1777100185.844884,0.0638427734375,0.0919189453125,0.9935302734375,1.8310546875,-1.03759765625,-0.18310546875
1777100185.844884,0.063720703125,0.091064453125,0.9873046875,1.5869140625,-1.28173828125,-0.18310546875
1777100185.844884,0.063232421875,0.08935546875,0.97900390625,2.0751953125,-1.708984375,-0.244140625
1777100185.844884,0.0633544921875,0.0906982421875,0.9676513671875,2.9296875,-2.44140625,-0.244140625
1777100185.844884,0.0628662109375,0.092529296875,0.9566650390625,3.47900390625,-3.41796875,-0.244140625
1777100185.844884,0.0635986328125,0.0953369140625,0.95361328125,3.35693359375,-4.45556640625,-0.244140625
1777100185.844884,0.063232421875,0.09619140625,0.959228515625,1.8310546875,-5.2490234375,-0.244140625
1777100185.844884,0.0634765625,0.0927734375,0.9754638671875,-0.3662109375,-5.67626953125,-0.244140625
1777100185.844884,0.067138671875,0.08740234375,1.0018310546875,-1.3427734375,-5.859375,-0.244140625
1777100185.844884,0.0692138671875,0.0831298828125,1.0172119140625,0.79345703125,-5.92041015625,-0.6103515625
1777100185.844884,0.0714111328125,0.0882568359375,1.0216064453125,3.23486328125,-5.79833984375,-0.244140625
1777100185.844884,0.07421875,0.09619140625,1.033447265625,1.220703125,-5.2490234375,-0.18310546875
1777100185.844884,0.0767822265625,0.0947265625,1.0517578125,-0.67138671875,-4.33349609375,-0.18310546875
1777100185.844884,0.07763671875,0.0911865234375,1.0679931640625,-0.91552734375,-2.99072265625,-0.18310546875
1777100185.844884,0.0755615234375,0.08984375,1.07275390625,0.0,-1.708984375,-0.244140625
1777100185.844884,0.07275390625,0.09033203125,1.065673828125,0.3662109375,-0.48828125,-0.1220703125
1777100185.844884,0.072021484375,0.0880126953125,1.0504150390625,0.0,0.42724609375,0.0
